"","STUDYID","DOMAIN","USUBJID","EXSEQ","EXTRT","EXDOSE","EXDOSU","EXDOSFRM","EXDOSFRQ","EXROUTE","VISITNUM","VISIT","VISITDY","EXSTDTC","EXENDTC","EXSTDY","EXENDY"
"1","CDISCPILOT01","EX","01-701-1015",1,"PLACEBO",0,"mg","PATCH","QD","TRANSDERMAL",3,"BASELINE",1,"2014-01-02","2014-01-16",1,15
"2","CDISCPILOT01","EX","01-701-1015",2,"PLACEBO",0,"mg","PATCH","QD","TRANSDERMAL",4,"WEEK 2",14,"2014-01-17","2014-06-18",16,168
"3","CDISCPILOT01","EX","01-701-1015",3,"PLACEBO",0,"mg","PATCH","QD","TRANSDERMAL",12,"WEEK 24",168,"2014-06-19","2014-07-02",169,182
"4","CDISCPILOT01","EX","01-701-1023",1,"PLACEBO",0,"mg","PATCH","QD","TRANSDERMAL",3,"BASELINE",1,"2012-08-05","2012-08-27",1,23
"5","CDISCPILOT01","EX","01-701-1023",2,"PLACEBO",0,"mg","PATCH","QD","TRANSDERMAL",4,"WEEK 2",14,"2012-08-28","2012-09-01",24,28
"6","CDISCPILOT01","EX","01-701-1028",1,"XANOMELINE",54,"mg","PATCH","QD","TRANSDERMAL",3,"BASELINE",1,"2013-07-19","2013-08-01",1,14
"7","CDISCPILOT01","EX","01-701-1028",2,"XANOMELINE",81,"mg","PATCH","QD","TRANSDERMAL",4,"WEEK 2",14,"2013-08-02","2014-01-06",15,172
"8","CDISCPILOT01","EX","01-701-1028",3,"XANOMELINE",54,"mg","PATCH","QD","TRANSDERMAL",12,"WEEK 24",168,"2014-01-07","2014-01-14",173,180
"9","CDISCPILOT01","EX","01-701-1033",1,"XANOMELINE",54,"mg","PATCH","QD","TRANSDERMAL",3,"BASELINE",1,"2014-03-18","2014-03-31",1,14
"10","CDISCPILOT01","EX","01-701-1034",1,"XANOMELINE",54,"mg","PATCH","QD","TRANSDERMAL",3,"BASELINE",1,"2014-07-01","2014-07-15",1,15
"11","CDISCPILOT01","EX","01-701-1034",2,"XANOMELINE",81,"mg","PATCH","QD","TRANSDERMAL",4,"WEEK 2",14,"2014-07-16","2014-12-17",16,170
"12","CDISCPILOT01","EX","01-701-1034",3,"XANOMELINE",54,"mg","PATCH","QD","TRANSDERMAL",12,"WEEK 24",168,"2014-12-18","2014-12-30",171,183
"13","CDISCPILOT01","EX","01-701-1047",1,"PLACEBO",0,"mg","PATCH","QD","TRANSDERMAL",3,"BASELINE",1,"2013-02-12","2013-02-25",1,14
"14","CDISCPILOT01","EX","01-701-1047",2,"PLACEBO",0,"mg","PATCH","QD","TRANSDERMAL",4,"WEEK 2",14,"2013-02-26","2013-03-09",15,26
"15","CDISCPILOT01","EX","01-701-1097",1,"XANOMELINE",54,"mg","PATCH","QD","TRANSDERMAL",3,"BASELINE",1,"2014-01-01","2014-01-15",1,15
"16","CDISCPILOT01","EX","01-701-1097",2,"XANOMELINE",54,"mg","PATCH","QD","TRANSDERMAL",4,"WEEK 2",14,"2014-01-16","2014-06-18",16,169
"17","CDISCPILOT01","EX","01-701-1097",3,"XANOMELINE",54,"mg","PATCH","QD","TRANSDERMAL",12,"WEEK 24",168,"2014-06-19","2014-07-09",170,190
"18","CDISCPILOT01","EX","01-701-1111",1,"XANOMELINE",54,"mg","PATCH","QD","TRANSDERMAL",3,"BASELINE",1,"2012-09-07","2012-09-16",1,10
"19","CDISCPILOT01","EX","01-701-1115",1,"XANOMELINE",54,"mg","PATCH","QD","TRANSDERMAL",3,"BASELINE",1,"2012-11-30","2012-12-13",1,14
"20","CDISCPILOT01","EX","01-701-1115",2,"XANOMELINE",54,"mg","PATCH","QD","TRANSDERMAL",4,"WEEK 2",14,"2012-12-14","2013-01-23",15,55
"21","CDISCPILOT01","EX","01-701-1118",1,"PLACEBO",0,"mg","PATCH","QD","TRANSDERMAL",3,"BASELINE",1,"2014-03-12","2014-03-26",1,15
"22","CDISCPILOT01","EX","01-701-1118",2,"PLACEBO",0,"mg","PATCH","QD","TRANSDERMAL",4,"WEEK 2",14,"2014-03-27","2014-08-27",16,169
"23","CDISCPILOT01","EX","01-701-1118",3,"PLACEBO",0,"mg","PATCH","QD","TRANSDERMAL",12,"WEEK 24",168,"2014-08-28","2014-09-09",170,182
"24","CDISCPILOT01","EX","01-701-1130",1,"PLACEBO",0,"mg","PATCH","QD","TRANSDERMAL",3,"BASELINE",1,"2014-02-15","2014-03-01",1,15
"25","CDISCPILOT01","EX","01-701-1130",2,"PLACEBO",0,"mg","PATCH","QD","TRANSDERMAL",4,"WEEK 2",14,"2014-03-02","2014-08-02",16,169
"26","CDISCPILOT01","EX","01-701-1130",3,"PLACEBO",0,"mg","PATCH","QD","TRANSDERMAL",12,"WEEK 24",168,"2014-08-03","2014-08-16",170,183
"27","CDISCPILOT01","EX","01-701-1133",1,"XANOMELINE",54,"mg","PATCH","QD","TRANSDERMAL",3,"BASELINE",1,"2012-10-28","2012-11-12",1,16
"28","CDISCPILOT01","EX","01-701-1133",2,"XANOMELINE",81,"mg","PATCH","QD","TRANSDERMAL",4,"WEEK 2",14,"2012-11-13","2013-04-18",17,173
"29","CDISCPILOT01","EX","01-701-1133",3,"XANOMELINE",54,"mg","PATCH","QD","TRANSDERMAL",12,"WEEK 24",168,"2013-04-19","2013-04-28",174,183
"30","CDISCPILOT01","EX","01-701-1146",1,"XANOMELINE",54,"mg","PATCH","QD","TRANSDERMAL",3,"BASELINE",1,"2013-05-20","2013-06-03",1,15
"31","CDISCPILOT01","EX","01-701-1146",2,"XANOMELINE",81,"mg","PATCH","QD","TRANSDERMAL",4,"WEEK 2",14,"2013-06-04","2013-06-26",16,38
"32","CDISCPILOT01","EX","01-701-1148",1,"XANOMELINE",54,"mg","PATCH","QD","TRANSDERMAL",3,"BASELINE",1,"2013-08-23","2013-09-05",1,14
"33","CDISCPILOT01","EX","01-701-1148",2,"XANOMELINE",81,"mg","PATCH","QD","TRANSDERMAL",4,"WEEK 2",14,"2013-09-06","2014-02-08",15,170
"34","CDISCPILOT01","EX","01-701-1148",3,"XANOMELINE",54,"mg","PATCH","QD","TRANSDERMAL",12,"WEEK 24",168,"2014-02-09","2014-02-20",171,182
"35","CDISCPILOT01","EX","01-701-1153",1,"PLACEBO",0,"mg","PATCH","QD","TRANSDERMAL",3,"BASELINE",1,"2013-09-23","2013-10-08",1,16
"36","CDISCPILOT01","EX","01-701-1153",2,"PLACEBO",0,"mg","PATCH","QD","TRANSDERMAL",4,"WEEK 2",14,"2013-10-09","2014-03-11",17,170
"37","CDISCPILOT01","EX","01-701-1153",3,"PLACEBO",0,"mg","PATCH","QD","TRANSDERMAL",12,"WEEK 24",168,"2014-03-12","2014-03-16",171,175
"38","CDISCPILOT01","EX","01-701-1180",1,"XANOMELINE",54,"mg","PATCH","QD","TRANSDERMAL",3,"BASELINE",1,"2013-02-12","2013-02-25",1,14
"39","CDISCPILOT01","EX","01-701-1180",2,"XANOMELINE",81,"mg","PATCH","QD","TRANSDERMAL",4,"WEEK 2",14,"2013-02-26","2013-03-18",15,35
"40","CDISCPILOT01","EX","01-701-1181",1,"XANOMELINE",54,"mg","PATCH","QD","TRANSDERMAL",3,"BASELINE",1,"2013-12-05","2013-12-09",1,5
"41","CDISCPILOT01","EX","01-701-1188",1,"XANOMELINE",54,"mg","PATCH","QD","TRANSDERMAL",3,"BASELINE",1,"2013-02-15","2013-03-02",1,16
"42","CDISCPILOT01","EX","01-701-1188",2,"XANOMELINE",54,"mg","PATCH","QD","TRANSDERMAL",4,"WEEK 2",14,"2013-03-03","2013-03-24",17,38
"43","CDISCPILOT01","EX","01-701-1192",1,"XANOMELINE",54,"mg","PATCH","QD","TRANSDERMAL",3,"BASELINE",1,"2012-07-22","2012-08-07",1,17
"44","CDISCPILOT01","EX","01-701-1192",2,"XANOMELINE",54,"mg","PATCH","QD","TRANSDERMAL",4,"WEEK 2",14,"2012-08-08","2013-01-11",18,174
"45","CDISCPILOT01","EX","01-701-1192",3,"XANOMELINE",54,"mg","PATCH","QD","TRANSDERMAL",12,"WEEK 24",168,"2013-01-12","2013-01-20",175,183
"46","CDISCPILOT01","EX","01-701-1203",1,"PLACEBO",0,"mg","PATCH","QD","TRANSDERMAL",3,"BASELINE",1,"2013-02-02","2013-02-23",1,22
"47","CDISCPILOT01","EX","01-701-1203",2,"PLACEBO",0,"mg","PATCH","QD","TRANSDERMAL",4,"WEEK 2",14,"2013-02-24","2013-07-22",23,171
"48","CDISCPILOT01","EX","01-701-1203",3,"PLACEBO",0,"mg","PATCH","QD","TRANSDERMAL",12,"WEEK 24",168,"2013-07-23","2013-08-03",172,183
"49","CDISCPILOT01","EX","01-701-1211",1,"XANOMELINE",54,"mg","PATCH","QD","TRANSDERMAL",3,"BASELINE",1,"2012-11-15","2012-11-28",1,14
"50","CDISCPILOT01","EX","01-701-1211",2,"XANOMELINE",54,"mg","PATCH","QD","TRANSDERMAL",4,"WEEK 2",14,"2012-11-29","2013-01-12",15,59
"51","CDISCPILOT01","EX","01-701-1234",1,"PLACEBO",0,"mg","PATCH","QD","TRANSDERMAL",3,"BASELINE",1,"2013-03-30","2013-04-21",1,23
"52","CDISCPILOT01","EX","01-701-1234",2,"PLACEBO",0,"mg","PATCH","QD","TRANSDERMAL",4,"WEEK 2",14,"2013-04-22","2013-09-10",24,165
"53","CDISCPILOT01","EX","01-701-1234",3,"PLACEBO",0,"mg","PATCH","QD","TRANSDERMAL",12,"WEEK 24",168,"2013-09-11","2013-09-22",166,177
"54","CDISCPILOT01","EX","01-701-1239",1,"XANOMELINE",54,"mg","PATCH","QD","TRANSDERMAL",3,"BASELINE",1,"2014-01-11","2014-01-25",1,15
"55","CDISCPILOT01","EX","01-701-1239",2,"XANOMELINE",81,"mg","PATCH","QD","TRANSDERMAL",4,"WEEK 2",14,"2014-01-26","2014-06-27",16,168
"56","CDISCPILOT01","EX","01-701-1239",3,"XANOMELINE",54,"mg","PATCH","QD","TRANSDERMAL",12,"WEEK 24",168,"2014-06-28","2014-07-10",169,181
"57","CDISCPILOT01","EX","01-701-1275",1,"XANOMELINE",54,"mg","PATCH","QD","TRANSDERMAL",3,"BASELINE",1,"2014-02-07","2014-02-22",1,16
"58","CDISCPILOT01","EX","01-701-1275",2,"XANOMELINE",81,"mg","PATCH","QD","TRANSDERMAL",4,"WEEK 2",14,"2014-02-23","2014-05-31",17,114
"59","CDISCPILOT01","EX","01-701-1287",1,"XANOMELINE",54,"mg","PATCH","QD","TRANSDERMAL",3,"BASELINE",1,"2014-01-25","2014-02-11",1,18
"60","CDISCPILOT01","EX","01-701-1287",2,"XANOMELINE",81,"mg","PATCH","QD","TRANSDERMAL",4,"WEEK 2",14,"2014-02-12","2014-07-12",19,169
"61","CDISCPILOT01","EX","01-701-1287",3,"XANOMELINE",54,"mg","PATCH","QD","TRANSDERMAL",12,"WEEK 24",168,"2014-07-13","2014-07-26",170,183
"62","CDISCPILOT01","EX","01-701-1294",1,"XANOMELINE",54,"mg","PATCH","QD","TRANSDERMAL",3,"BASELINE",1,"2013-03-24","2013-04-10",1,18
"63","CDISCPILOT01","EX","01-701-1294",2,"XANOMELINE",54,"mg","PATCH","QD","TRANSDERMAL",4,"WEEK 2",14,"2013-04-11","2013-06-14",19,83
"64","CDISCPILOT01","EX","01-701-1302",1,"XANOMELINE",54,"mg","PATCH","QD","TRANSDERMAL",3,"BASELINE",1,"2013-08-29","2013-09-15",1,18
"65","CDISCPILOT01","EX","01-701-1302",2,"XANOMELINE",81,"mg","PATCH","QD","TRANSDERMAL",4,"WEEK 2",14,"2013-09-16","2013-11-05",19,69
"66","CDISCPILOT01","EX","01-701-1317",1,"XANOMELINE",54,"mg","PATCH","QD","TRANSDERMAL",3,"BASELINE",1,"2014-05-22","2014-06-05",1,15
"67","CDISCPILOT01","EX","01-701-1317",2,"XANOMELINE",54,"mg","PATCH","QD","TRANSDERMAL",4,"WEEK 2",14,"2014-06-06","2014-11-06",16,169
"68","CDISCPILOT01","EX","01-701-1317",3,"XANOMELINE",54,"mg","PATCH","QD","TRANSDERMAL",12,"WEEK 24",168,"2014-11-07","2014-11-20",170,183
"69","CDISCPILOT01","EX","01-701-1324",1,"XANOMELINE",54,"mg","PATCH","QD","TRANSDERMAL",3,"BASELINE",1,"2012-10-02","2012-10-16",1,15
"70","CDISCPILOT01","EX","01-701-1324",2,"XANOMELINE",54,"mg","PATCH","QD","TRANSDERMAL",4,"WEEK 2",14,"2012-10-17","2013-03-19",16,169
"71","CDISCPILOT01","EX","01-701-1324",3,"XANOMELINE",54,"mg","PATCH","QD","TRANSDERMAL",12,"WEEK 24",168,"2013-03-20","2013-04-02",170,183
"72","CDISCPILOT01","EX","01-701-1341",1,"XANOMELINE",54,"mg","PATCH","QD","TRANSDERMAL",3,"BASELINE",1,"2013-01-05","2013-01-18",1,14
"73","CDISCPILOT01","EX","01-701-1341",2,"XANOMELINE",54,"mg","PATCH","QD","TRANSDERMAL",4,"WEEK 2",14,"2013-01-19","2013-01-26",15,22
"74","CDISCPILOT01","EX","01-701-1345",1,"PLACEBO",0,"mg","PATCH","QD","TRANSDERMAL",3,"BASELINE",1,"2013-10-08","2013-10-24",1,17
"75","CDISCPILOT01","EX","01-701-1345",2,"PLACEBO",0,"mg","PATCH","QD","TRANSDERMAL",4,"WEEK 2",14,"2013-10-25","2014-03-18",18,162
"76","CDISCPILOT01","EX","01-701-1360",1,"XANOMELINE",54,"mg","PATCH","QD","TRANSDERMAL",3,"BASELINE",1,"2013-07-31","2013-08-05",1,6
"77","CDISCPILOT01","EX","01-701-1363",1,"PLACEBO",0,"mg","PATCH","QD","TRANSDERMAL",3,"BASELINE",1,"2013-05-30","2013-06-12",1,14
"78","CDISCPILOT01","EX","01-701-1363",2,"PLACEBO",0,"mg","PATCH","QD","TRANSDERMAL",4,"WEEK 2",14,"2013-06-13","2013-11-13",15,168
"79","CDISCPILOT01","EX","01-701-1363",3,"PLACEBO",0,"mg","PATCH","QD","TRANSDERMAL",12,"WEEK 24",168,"2013-11-14","2013-11-27",169,182
"80","CDISCPILOT01","EX","01-701-1383",1,"XANOMELINE",54,"mg","PATCH","QD","TRANSDERMAL",3,"BASELINE",1,"2013-02-04","2013-02-19",1,16
"81","CDISCPILOT01","EX","01-701-1383",2,"XANOMELINE",81,"mg","PATCH","QD","TRANSDERMAL",4,"WEEK 2",14,"2013-02-20","2013-07-30",17,177
"82","CDISCPILOT01","EX","01-701-1383",3,"XANOMELINE",54,"mg","PATCH","QD","TRANSDERMAL",12,"WEEK 24",168,"2013-07-31","2013-08-06",178,184
"83","CDISCPILOT01","EX","01-701-1387",1,"PLACEBO",0,"mg","PATCH","QD","TRANSDERMAL",3,"BASELINE",1,"2014-03-12","2014-03-25",1,14
"84","CDISCPILOT01","EX","01-701-1392",1,"PLACEBO",0,"mg","PATCH","QD","TRANSDERMAL",3,"BASELINE",1,"2012-10-28","2012-11-11",1,15
"85","CDISCPILOT01","EX","01-701-1392",2,"PLACEBO",0,"mg","PATCH","QD","TRANSDERMAL",4,"WEEK 2",14,"2012-11-12","2013-04-15",16,170
"86","CDISCPILOT01","EX","01-701-1392",3,"PLACEBO",0,"mg","PATCH","QD","TRANSDERMAL",12,"WEEK 24",168,"2013-04-16","2013-04-28",171,183
"87","CDISCPILOT01","EX","01-701-1415",1,"PLACEBO",0,"mg","PATCH","QD","TRANSDERMAL",3,"BASELINE",1,"2013-09-23","2013-10-07",1,15
"88","CDISCPILOT01","EX","01-701-1415",2,"PLACEBO",0,"mg","PATCH","QD","TRANSDERMAL",4,"WEEK 2",14,"2013-10-08","2014-03-10",16,169
"89","CDISCPILOT01","EX","01-701-1415",3,"PLACEBO",0,"mg","PATCH","QD","TRANSDERMAL",12,"WEEK 24",168,"2014-03-11","2014-03-24",170,183
"90","CDISCPILOT01","EX","01-701-1429",1,"XANOMELINE",54,"mg","PATCH","QD","TRANSDERMAL",3,"BASELINE",1,"2013-03-19","2013-04-02",1,15
"91","CDISCPILOT01","EX","01-701-1429",2,"XANOMELINE",54,"mg","PATCH","QD","TRANSDERMAL",4,"WEEK 2",14,"2013-04-03","2013-04-30",16,43
"92","CDISCPILOT01","EX","01-701-1440",1,"PLACEBO",0,"mg","PATCH","QD","TRANSDERMAL",3,"BASELINE",1,"2013-08-08","2013-08-23",1,16
"93","CDISCPILOT01","EX","01-701-1440",2,"PLACEBO",0,"mg","PATCH","QD","TRANSDERMAL",4,"WEEK 2",14,"2013-08-24","2014-01-22",17,168
"94","CDISCPILOT01","EX","01-701-1440",3,"PLACEBO",0,"mg","PATCH","QD","TRANSDERMAL",12,"WEEK 24",168,"2014-01-23","2014-02-05",169,182
"95","CDISCPILOT01","EX","01-701-1442",1,"XANOMELINE",54,"mg","PATCH","QD","TRANSDERMAL",3,"BASELINE",1,"2013-10-26","2013-11-09",1,15
"96","CDISCPILOT01","EX","01-701-1442",2,"XANOMELINE",54,"mg","PATCH","QD","TRANSDERMAL",4,"WEEK 2",14,"2013-11-10","2014-04-17",16,174
"97","CDISCPILOT01","EX","01-701-1442",3,"XANOMELINE",54,"mg","PATCH","QD","TRANSDERMAL",12,"WEEK 24",168,"2014-04-18","2014-04-26",175,183
"98","CDISCPILOT01","EX","01-701-1444",1,"XANOMELINE",54,"mg","PATCH","QD","TRANSDERMAL",3,"BASELINE",1,"2013-01-05","2013-01-18",1,14
"99","CDISCPILOT01","EX","01-701-1444",2,"XANOMELINE",81,"mg","PATCH","QD","TRANSDERMAL",4,"WEEK 2",14,"2013-01-19","2013-02-12",15,39
"100","CDISCPILOT01","EX","01-702-1082",1,"XANOMELINE",54,"mg","PATCH","QD","TRANSDERMAL",3,"BASELINE",1,"2013-07-26","2013-08-08",1,14
"101","CDISCPILOT01","EX","01-702-1082",2,"XANOMELINE",54,"mg","PATCH","QD","TRANSDERMAL",4,"WEEK 2",14,"2013-08-09","2013-10-13",15,80
"102","CDISCPILOT01","EX","01-703-1042",1,"PLACEBO",0,"mg","PATCH","QD","TRANSDERMAL",3,"BASELINE",1,"2013-03-02","2013-03-14",1,13
"103","CDISCPILOT01","EX","01-703-1042",2,"PLACEBO",0,"mg","PATCH","QD","TRANSDERMAL",4,"WEEK 2",14,"2013-03-15","2013-08-09",14,161
"104","CDISCPILOT01","EX","01-703-1042",3,"PLACEBO",0,"mg","PATCH","QD","TRANSDERMAL",12,"WEEK 24",168,"2013-08-10","2013-08-31",162,183
"105","CDISCPILOT01","EX","01-703-1076",1,"XANOMELINE",54,"mg","PATCH","QD","TRANSDERMAL",3,"BASELINE",1,"2013-10-25","2013-11-06",1,13
"106","CDISCPILOT01","EX","01-703-1076",2,"XANOMELINE",81,"mg","PATCH","QD","TRANSDERMAL",4,"WEEK 2",14,"2013-11-07","2013-12-24",14,61
"107","CDISCPILOT01","EX","01-703-1086",1,"XANOMELINE",54,"mg","PATCH","QD","TRANSDERMAL",3,"BASELINE",1,"2012-09-02","2012-09-16",1,15
"108","CDISCPILOT01","EX","01-703-1086",2,"XANOMELINE",54,"mg","PATCH","QD","TRANSDERMAL",4,"WEEK 2",14,"2012-09-17","2012-12-04",16,94
"109","CDISCPILOT01","EX","01-703-1096",1,"PLACEBO",0,"mg","PATCH","QD","TRANSDERMAL",3,"BASELINE",1,"2013-01-25","2013-02-09",1,16
"110","CDISCPILOT01","EX","01-703-1096",2,"PLACEBO",0,"mg","PATCH","QD","TRANSDERMAL",4,"WEEK 2",14,"2013-02-10","2013-03-16",17,51
"111","CDISCPILOT01","EX","01-703-1100",1,"PLACEBO",0,"mg","PATCH","QD","TRANSDERMAL",3,"BASELINE",1,"2013-03-13","2013-03-29",1,17
"112","CDISCPILOT01","EX","01-703-1100",2,"PLACEBO",0,"mg","PATCH","QD","TRANSDERMAL",4,"WEEK 2",14,"2013-03-30","2013-08-28",18,169
"113","CDISCPILOT01","EX","01-703-1100",3,"PLACEBO",0,"mg","PATCH","QD","TRANSDERMAL",12,"WEEK 24",168,"2013-08-29","2013-09-14",170,186
"114","CDISCPILOT01","EX","01-703-1119",1,"XANOMELINE",54,"mg","PATCH","QD","TRANSDERMAL",3,"BASELINE",1,"2013-02-20","2013-03-10",1,19
"115","CDISCPILOT01","EX","01-703-1119",2,"XANOMELINE",54,"mg","PATCH","QD","TRANSDERMAL",4,"WEEK 2",14,"2013-03-11","2013-06-13",20,114
"116","CDISCPILOT01","EX","01-703-1175",1,"PLACEBO",0,"mg","PATCH","QD","TRANSDERMAL",3,"BASELINE",1,"2013-12-20","2013-12-26",1,7
"117","CDISCPILOT01","EX","01-703-1182",1,"XANOMELINE",54,"mg","PATCH","QD","TRANSDERMAL",3,"BASELINE",1,"2013-10-17","2013-10-31",1,15
"118","CDISCPILOT01","EX","01-703-1182",2,"XANOMELINE",54,"mg","PATCH","QD","TRANSDERMAL",4,"WEEK 2",14,"2013-11-01","2013-12-11",16,56
"119","CDISCPILOT01","EX","01-703-1197",1,"XANOMELINE",54,"mg","PATCH","QD","TRANSDERMAL",3,"BASELINE",1,"2013-06-16","2013-06-29",1,14
"120","CDISCPILOT01","EX","01-703-1210",1,"PLACEBO",0,"mg","PATCH","QD","TRANSDERMAL",3,"BASELINE",1,"2013-03-16","2013-03-30",1,15
"121","CDISCPILOT01","EX","01-703-1210",2,"PLACEBO",0,"mg","PATCH","QD","TRANSDERMAL",4,"WEEK 2",14,"2013-03-31","2013-08-24",16,162
"122","CDISCPILOT01","EX","01-703-1210",3,"PLACEBO",0,"mg","PATCH","QD","TRANSDERMAL",12,"WEEK 24",168,"2013-08-25","2013-09-06",163,175
"123","CDISCPILOT01","EX","01-703-1258",1,"XANOMELINE",54,"mg","PATCH","QD","TRANSDERMAL",3,"BASELINE",1,"2012-07-20","2012-08-01",1,13
"124","CDISCPILOT01","EX","01-703-1258",2,"XANOMELINE",81,"mg","PATCH","QD","TRANSDERMAL",4,"WEEK 2",14,"2012-08-02","2012-12-31",14,165
"125","CDISCPILOT01","EX","01-703-1258",3,"XANOMELINE",54,"mg","PATCH","QD","TRANSDERMAL",12,"WEEK 24",168,"2013-01-01","2013-01-11",166,176
"126","CDISCPILOT01","EX","01-703-1279",1,"XANOMELINE",54,"mg","PATCH","QD","TRANSDERMAL",3,"BASELINE",1,"2013-05-13","2013-06-03",1,22
"127","CDISCPILOT01","EX","01-703-1295",1,"XANOMELINE",54,"mg","PATCH","QD","TRANSDERMAL",3,"BASELINE",1,"2013-11-21","2013-12-05",1,15
"128","CDISCPILOT01","EX","01-703-1295",2,"XANOMELINE",81,"mg","PATCH","QD","TRANSDERMAL",4,"WEEK 2",14,"2013-12-06","2014-04-19",16,150
"129","CDISCPILOT01","EX","01-703-1299",1,"PLACEBO",0,"mg","PATCH","QD","TRANSDERMAL",3,"BASELINE",1,"2012-09-12","2012-09-28",1,17
"130","CDISCPILOT01","EX","01-703-1299",2,"PLACEBO",0,"mg","PATCH","QD","TRANSDERMAL",4,"WEEK 2",14,"2012-09-29","2013-03-01",18,171
"131","CDISCPILOT01","EX","01-703-1299",3,"PLACEBO",0,"mg","PATCH","QD","TRANSDERMAL",12,"WEEK 24",168,"2013-03-02","2013-03-13",172,183
"132","CDISCPILOT01","EX","01-703-1335",1,"XANOMELINE",54,"mg","PATCH","QD","TRANSDERMAL",3,"BASELINE",1,"2014-03-17","2014-03-31",1,15
"133","CDISCPILOT01","EX","01-703-1335",2,"XANOMELINE",81,"mg","PATCH","QD","TRANSDERMAL",4,"WEEK 2",14,"2014-04-01","2014-05-07",16,52
"134","CDISCPILOT01","EX","01-703-1379",1,"XANOMELINE",54,"mg","PATCH","QD","TRANSDERMAL",3,"BASELINE",1,"2013-09-22","2013-10-07",1,16
"135","CDISCPILOT01","EX","01-703-1379",2,"XANOMELINE",54,"mg","PATCH","QD","TRANSDERMAL",4,"WEEK 2",14,"2013-10-08","2014-03-08",17,168
"136","CDISCPILOT01","EX","01-703-1379",3,"XANOMELINE",54,"mg","PATCH","QD","TRANSDERMAL",12,"WEEK 24",168,"2014-03-09","2014-03-21",169,181
"137","CDISCPILOT01","EX","01-703-1403",1,"XANOMELINE",54,"mg","PATCH","QD","TRANSDERMAL",3,"BASELINE",1,"2012-12-12","2012-12-13",1,2
"138","CDISCPILOT01","EX","01-703-1439",1,"XANOMELINE",54,"mg","PATCH","QD","TRANSDERMAL",3,"BASELINE",1,"2014-03-12","2014-03-26",1,15
"139","CDISCPILOT01","EX","01-703-1439",2,"XANOMELINE",81,"mg","PATCH","QD","TRANSDERMAL",4,"WEEK 2",14,"2014-03-27","2014-08-28",16,170
"140","CDISCPILOT01","EX","01-703-1439",3,"XANOMELINE",54,"mg","PATCH","QD","TRANSDERMAL",12,"WEEK 24",168,"2014-08-29","2014-09-11",171,184
"141","CDISCPILOT01","EX","01-704-1008",1,"XANOMELINE",54,"mg","PATCH","QD","TRANSDERMAL",3,"BASELINE",1,"2013-01-13","2013-01-28",1,16
"142","CDISCPILOT01","EX","01-704-1008",2,"XANOMELINE",81,"mg","PATCH","QD","TRANSDERMAL",4,"WEEK 2",14,"2013-01-29","2013-02-21",17,40
"143","CDISCPILOT01","EX","01-704-1009",1,"XANOMELINE",54,"mg","PATCH","QD","TRANSDERMAL",3,"BASELINE",1,"2013-08-27","2013-09-14",1,19
"144","CDISCPILOT01","EX","01-704-1009",2,"XANOMELINE",54,"mg","PATCH","QD","TRANSDERMAL",4,"WEEK 2",14,"2013-09-15","2013-09-25",20,30
"145","CDISCPILOT01","EX","01-704-1010",1,"PLACEBO",0,"mg","PATCH","QD","TRANSDERMAL",3,"BASELINE",1,"2014-02-21","2014-03-08",1,16
"146","CDISCPILOT01","EX","01-704-1010",2,"PLACEBO",0,"mg","PATCH","QD","TRANSDERMAL",4,"WEEK 2",14,"2014-03-09","2014-07-08",17,138
"147","CDISCPILOT01","EX","01-704-1017",1,"XANOMELINE",54,"mg","PATCH","QD","TRANSDERMAL",3,"BASELINE",1,"2013-10-06","2013-10-19",1,14
"148","CDISCPILOT01","EX","01-704-1017",2,"XANOMELINE",81,"mg","PATCH","QD","TRANSDERMAL",4,"WEEK 2",14,"2013-10-20","2013-11-18",15,44
"149","CDISCPILOT01","EX","01-704-1025",1,"XANOMELINE",54,"mg","PATCH","QD","TRANSDERMAL",3,"BASELINE",1,"2013-09-27","2013-10-11",1,15
"150","CDISCPILOT01","EX","01-704-1025",2,"XANOMELINE",54,"mg","PATCH","QD","TRANSDERMAL",4,"WEEK 2",14,"2013-10-12","2013-10-24",16,28
"151","CDISCPILOT01","EX","01-704-1065",1,"XANOMELINE",54,"mg","PATCH","QD","TRANSDERMAL",3,"BASELINE",1,"2013-10-24","2013-11-07",1,15
"152","CDISCPILOT01","EX","01-704-1065",2,"XANOMELINE",81,"mg","PATCH","QD","TRANSDERMAL",4,"WEEK 2",14,"2013-11-08","2013-12-22",16,60
"153","CDISCPILOT01","EX","01-704-1074",1,"XANOMELINE",54,"mg","PATCH","QD","TRANSDERMAL",3,"BASELINE",1,"2014-01-22","2014-02-09",1,19
"154","CDISCPILOT01","EX","01-704-1074",2,"XANOMELINE",81,"mg","PATCH","QD","TRANSDERMAL",4,"WEEK 2",14,"2014-02-10","2014-03-20",20,58
"155","CDISCPILOT01","EX","01-704-1093",1,"XANOMELINE",54,"mg","PATCH","QD","TRANSDERMAL",3,"BASELINE",1,"2013-03-15","2013-03-30",1,16
"156","CDISCPILOT01","EX","01-704-1093",2,"XANOMELINE",81,"mg","PATCH","QD","TRANSDERMAL",4,"WEEK 2",14,"2013-03-31","2013-06-17",17,95
"157","CDISCPILOT01","EX","01-704-1114",1,"XANOMELINE",54,"mg","PATCH","QD","TRANSDERMAL",3,"BASELINE",1,"2013-01-23","2013-02-03",1,12
"158","CDISCPILOT01","EX","01-704-1114",2,"XANOMELINE",54,"mg","PATCH","QD","TRANSDERMAL",4,"WEEK 2",14,"2013-02-04","2013-07-07",13,166
"159","CDISCPILOT01","EX","01-704-1120",1,"XANOMELINE",54,"mg","PATCH","QD","TRANSDERMAL",3,"BASELINE",1,"2013-12-02","2013-12-15",1,14
"160","CDISCPILOT01","EX","01-704-1120",2,"XANOMELINE",54,"mg","PATCH","QD","TRANSDERMAL",4,"WEEK 2",14,"2013-12-16","2014-02-01",15,62
"161","CDISCPILOT01","EX","01-704-1127",1,"PLACEBO",0,"mg","PATCH","QD","TRANSDERMAL",3,"BASELINE",1,"2013-10-02","2013-10-16",1,15
"162","CDISCPILOT01","EX","01-704-1127",2,"PLACEBO",0,"mg","PATCH","QD","TRANSDERMAL",4,"WEEK 2",14,"2013-10-17","2014-03-17",16,167
"163","CDISCPILOT01","EX","01-704-1127",3,"PLACEBO",0,"mg","PATCH","QD","TRANSDERMAL",12,"WEEK 24",168,"2014-03-18","2014-03-31",168,181
"164","CDISCPILOT01","EX","01-704-1135",1,"XANOMELINE",54,"mg","PATCH","QD","TRANSDERMAL",3,"BASELINE",1,"2013-10-31","2013-11-14",1,15
"165","CDISCPILOT01","EX","01-704-1135",2,"XANOMELINE",54,"mg","PATCH","QD","TRANSDERMAL",4,"WEEK 2",14,"2013-11-15","2014-05-01",16,183
"166","CDISCPILOT01","EX","01-704-1135",3,"XANOMELINE",54,"mg","PATCH","QD","TRANSDERMAL",12,"WEEK 24",168,"2014-05-02","2014-05-16",184,198
"167","CDISCPILOT01","EX","01-704-1164",1,"PLACEBO",0,"mg","PATCH","QD","TRANSDERMAL",3,"BASELINE",1,"2012-09-19","2012-10-04",1,16
"168","CDISCPILOT01","EX","01-704-1164",2,"PLACEBO",0,"mg","PATCH","QD","TRANSDERMAL",4,"WEEK 2",14,"2012-10-05","2013-03-17",17,180
"169","CDISCPILOT01","EX","01-704-1164",3,"PLACEBO",0,"mg","PATCH","QD","TRANSDERMAL",12,"WEEK 24",168,"2013-03-18","2013-04-04",181,198
"170","CDISCPILOT01","EX","01-704-1218",1,"XANOMELINE",54,"mg","PATCH","QD","TRANSDERMAL",3,"BASELINE",1,"2012-11-19","2012-12-03",1,15
"171","CDISCPILOT01","EX","01-704-1218",2,"XANOMELINE",54,"mg","PATCH","QD","TRANSDERMAL",4,"WEEK 2",14,"2012-12-04","2013-05-13",16,176
"172","CDISCPILOT01","EX","01-704-1218",3,"XANOMELINE",54,"mg","PATCH","QD","TRANSDERMAL",12,"WEEK 24",168,"2013-05-14","2013-05-27",177,190
"173","CDISCPILOT01","EX","01-704-1233",1,"PLACEBO",0,"mg","PATCH","QD","TRANSDERMAL",3,"BASELINE",1,"2013-03-21","2013-04-04",1,15
"174","CDISCPILOT01","EX","01-704-1233",2,"PLACEBO",0,"mg","PATCH","QD","TRANSDERMAL",4,"WEEK 2",14,"2013-04-05","",16,NA
"175","CDISCPILOT01","EX","01-704-1241",1,"XANOMELINE",54,"mg","PATCH","QD","TRANSDERMAL",3,"BASELINE",1,"2013-08-25","2013-09-05",1,12
"176","CDISCPILOT01","EX","01-704-1241",2,"XANOMELINE",81,"mg","PATCH","QD","TRANSDERMAL",4,"WEEK 2",14,"2013-09-06","2013-10-09",13,46
"177","CDISCPILOT01","EX","01-704-1260",1,"PLACEBO",0,"mg","PATCH","QD","TRANSDERMAL",3,"BASELINE",1,"2012-08-30","2012-09-13",1,15
"178","CDISCPILOT01","EX","01-704-1260",2,"PLACEBO",0,"mg","PATCH","QD","TRANSDERMAL",4,"WEEK 2",14,"2012-09-14","2012-11-04",16,67
"179","CDISCPILOT01","EX","01-704-1266",1,"XANOMELINE",54,"mg","PATCH","QD","TRANSDERMAL",3,"BASELINE",1,"2013-10-13","2013-10-27",1,15
"180","CDISCPILOT01","EX","01-704-1266",2,"XANOMELINE",81,"mg","PATCH","QD","TRANSDERMAL",4,"WEEK 2",14,"2013-10-28","2013-12-06",16,55
"181","CDISCPILOT01","EX","01-704-1323",1,"XANOMELINE",54,"mg","PATCH","QD","TRANSDERMAL",3,"BASELINE",1,"2013-07-08","2013-07-23",1,16
"182","CDISCPILOT01","EX","01-704-1323",2,"XANOMELINE",54,"mg","PATCH","QD","TRANSDERMAL",4,"WEEK 2",14,"2013-07-24","2013-08-05",17,29
"183","CDISCPILOT01","EX","01-704-1325",1,"XANOMELINE",54,"mg","PATCH","QD","TRANSDERMAL",3,"BASELINE",1,"2014-04-23","2014-05-07",1,15
"184","CDISCPILOT01","EX","01-704-1325",2,"XANOMELINE",54,"mg","PATCH","QD","TRANSDERMAL",4,"WEEK 2",14,"2014-05-08","2014-07-04",16,73
"185","CDISCPILOT01","EX","01-704-1332",1,"XANOMELINE",54,"mg","PATCH","QD","TRANSDERMAL",3,"BASELINE",1,"2013-12-09","2013-12-23",1,15
"186","CDISCPILOT01","EX","01-704-1332",2,"XANOMELINE",81,"mg","PATCH","QD","TRANSDERMAL",4,"WEEK 2",14,"2013-12-24","2014-02-14",16,68
"187","CDISCPILOT01","EX","01-704-1351",1,"PLACEBO",0,"mg","PATCH","QD","TRANSDERMAL",3,"BASELINE",1,"2013-10-12","2013-10-26",1,15
"188","CDISCPILOT01","EX","01-704-1351",2,"PLACEBO",0,"mg","PATCH","QD","TRANSDERMAL",4,"WEEK 2",14,"2013-10-27","2014-04-04",16,175
"189","CDISCPILOT01","EX","01-704-1351",3,"PLACEBO",0,"mg","PATCH","QD","TRANSDERMAL",12,"WEEK 24",168,"2014-04-05","2014-04-18",176,189
"190","CDISCPILOT01","EX","01-704-1388",1,"PLACEBO",0,"mg","PATCH","QD","TRANSDERMAL",3,"BASELINE",1,"2012-12-07","2012-12-21",1,15
"191","CDISCPILOT01","EX","01-704-1388",2,"PLACEBO",0,"mg","PATCH","QD","TRANSDERMAL",4,"WEEK 2",14,"2012-12-22","2013-05-23",16,168
"192","CDISCPILOT01","EX","01-704-1388",3,"PLACEBO",0,"mg","PATCH","QD","TRANSDERMAL",12,"WEEK 24",168,"2013-05-24","2013-06-11",169,187
"193","CDISCPILOT01","EX","01-704-1435",1,"PLACEBO",0,"mg","PATCH","QD","TRANSDERMAL",3,"BASELINE",1,"2012-11-17","2012-12-01",1,15
"194","CDISCPILOT01","EX","01-704-1435",2,"PLACEBO",0,"mg","PATCH","QD","TRANSDERMAL",4,"WEEK 2",14,"2012-12-02","2013-01-09",16,54
"195","CDISCPILOT01","EX","01-704-1445",1,"PLACEBO",0,"mg","PATCH","QD","TRANSDERMAL",3,"BASELINE",1,"2014-05-11","2014-05-25",1,15
"196","CDISCPILOT01","EX","01-704-1445",2,"PLACEBO",0,"mg","PATCH","QD","TRANSDERMAL",4,"WEEK 2",14,"2014-05-26","2014-11-01",16,175
"197","CDISCPILOT01","EX","01-705-1018",1,"PLACEBO",0,"mg","PATCH","QD","TRANSDERMAL",3,"BASELINE",1,"2013-07-05","",1,NA
"198","CDISCPILOT01","EX","01-705-1031",1,"XANOMELINE",54,"mg","PATCH","QD","TRANSDERMAL",3,"BASELINE",1,"2013-11-27","2013-12-18",1,22
"199","CDISCPILOT01","EX","01-705-1031",2,"XANOMELINE",54,"mg","PATCH","QD","TRANSDERMAL",4,"WEEK 2",14,"2013-12-19","",23,NA
"200","CDISCPILOT01","EX","01-705-1059",1,"PLACEBO",0,"mg","PATCH","QD","TRANSDERMAL",3,"BASELINE",1,"2013-08-05","2013-08-19",1,15
"201","CDISCPILOT01","EX","01-705-1059",2,"PLACEBO",0,"mg","PATCH","QD","TRANSDERMAL",4,"WEEK 2",14,"2013-08-20","2013-12-05",16,123
"202","CDISCPILOT01","EX","01-705-1186",1,"PLACEBO",0,"mg","PATCH","QD","TRANSDERMAL",3,"BASELINE",1,"2014-01-08","2014-01-23",1,16
"203","CDISCPILOT01","EX","01-705-1186",2,"PLACEBO",0,"mg","PATCH","QD","TRANSDERMAL",4,"WEEK 2",14,"2014-01-24","2014-01-26",17,19
"204","CDISCPILOT01","EX","01-705-1199",1,"XANOMELINE",54,"mg","PATCH","QD","TRANSDERMAL",3,"BASELINE",1,"2013-09-16","2013-09-28",1,13
"205","CDISCPILOT01","EX","01-705-1280",1,"XANOMELINE",54,"mg","PATCH","QD","TRANSDERMAL",3,"BASELINE",1,"2014-01-17","2014-01-31",1,15
"206","CDISCPILOT01","EX","01-705-1280",2,"XANOMELINE",81,"mg","PATCH","QD","TRANSDERMAL",4,"WEEK 2",14,"2014-02-01","2014-07-11",16,176
"207","CDISCPILOT01","EX","01-705-1280",3,"XANOMELINE",54,"mg","PATCH","QD","TRANSDERMAL",12,"WEEK 24",168,"2014-07-12","2014-07-25",177,190
"208","CDISCPILOT01","EX","01-705-1281",1,"XANOMELINE",54,"mg","PATCH","QD","TRANSDERMAL",3,"BASELINE",1,"2013-11-28","2013-12-15",1,18
"209","CDISCPILOT01","EX","01-705-1281",2,"XANOMELINE",81,"mg","PATCH","QD","TRANSDERMAL",4,"WEEK 2",14,"2013-12-16","2014-02-27",19,92
"210","CDISCPILOT01","EX","01-705-1282",1,"PLACEBO",0,"mg","PATCH","QD","TRANSDERMAL",3,"BASELINE",1,"2012-12-26","2013-01-09",1,15
"211","CDISCPILOT01","EX","01-705-1282",2,"PLACEBO",0,"mg","PATCH","QD","TRANSDERMAL",4,"WEEK 2",14,"2013-01-10","2013-06-11",16,168
"212","CDISCPILOT01","EX","01-705-1282",3,"PLACEBO",0,"mg","PATCH","QD","TRANSDERMAL",12,"WEEK 24",168,"2013-06-12","2013-06-24",169,181
"213","CDISCPILOT01","EX","01-705-1292",1,"XANOMELINE",54,"mg","PATCH","QD","TRANSDERMAL",3,"BASELINE",1,"2013-10-14","2013-10-29",1,16
"214","CDISCPILOT01","EX","01-705-1292",2,"XANOMELINE",54,"mg","PATCH","QD","TRANSDERMAL",4,"WEEK 2",14,"2013-10-30","2014-04-28",17,197
"215","CDISCPILOT01","EX","01-705-1292",3,"XANOMELINE",54,"mg","PATCH","QD","TRANSDERMAL",12,"WEEK 24",168,"2014-04-29","2014-05-13",198,212
"216","CDISCPILOT01","EX","01-705-1303",1,"XANOMELINE",54,"mg","PATCH","QD","TRANSDERMAL",3,"BASELINE",1,"2013-12-16","2013-12-30",1,15
"217","CDISCPILOT01","EX","01-705-1303",2,"XANOMELINE",81,"mg","PATCH","QD","TRANSDERMAL",4,"WEEK 2",14,"2013-12-31","",16,NA
"218","CDISCPILOT01","EX","01-705-1310",1,"XANOMELINE",54,"mg","PATCH","QD","TRANSDERMAL",3,"BASELINE",1,"2013-11-02","2013-11-22",1,21
"219","CDISCPILOT01","EX","01-705-1310",2,"XANOMELINE",81,"mg","PATCH","QD","TRANSDERMAL",4,"WEEK 2",14,"2013-11-23","2014-01-23",22,83
"220","CDISCPILOT01","EX","01-705-1349",1,"PLACEBO",0,"mg","PATCH","QD","TRANSDERMAL",3,"BASELINE",1,"2013-03-10","2013-03-24",1,15
"221","CDISCPILOT01","EX","01-705-1349",2,"PLACEBO",0,"mg","PATCH","QD","TRANSDERMAL",4,"WEEK 2",14,"2013-03-25","2013-08-25",16,169
"222","CDISCPILOT01","EX","01-705-1349",3,"PLACEBO",0,"mg","PATCH","QD","TRANSDERMAL",12,"WEEK 24",168,"2013-08-26","2013-09-08",170,183
"223","CDISCPILOT01","EX","01-705-1377",1,"XANOMELINE",54,"mg","PATCH","QD","TRANSDERMAL",3,"BASELINE",1,"2014-01-04","2014-01-25",1,22
"224","CDISCPILOT01","EX","01-705-1377",2,"XANOMELINE",81,"mg","PATCH","QD","TRANSDERMAL",4,"WEEK 2",14,"2014-01-26","",23,NA
"225","CDISCPILOT01","EX","01-705-1382",1,"XANOMELINE",54,"mg","PATCH","QD","TRANSDERMAL",3,"BASELINE",1,"2013-05-13","",1,NA
"226","CDISCPILOT01","EX","01-705-1393",1,"XANOMELINE",54,"mg","PATCH","QD","TRANSDERMAL",3,"BASELINE",1,"2012-09-07","2012-09-27",1,21
"227","CDISCPILOT01","EX","01-705-1393",2,"XANOMELINE",54,"mg","PATCH","QD","TRANSDERMAL",4,"WEEK 2",14,"2012-09-28","2013-02-01",22,148
"228","CDISCPILOT01","EX","01-705-1431",1,"XANOMELINE",54,"mg","PATCH","QD","TRANSDERMAL",3,"BASELINE",1,"2013-06-23","2013-07-07",1,15
"229","CDISCPILOT01","EX","01-705-1431",2,"XANOMELINE",54,"mg","PATCH","QD","TRANSDERMAL",4,"WEEK 2",14,"2013-07-08","2013-12-05",16,166
"230","CDISCPILOT01","EX","01-705-1431",3,"XANOMELINE",54,"mg","PATCH","QD","TRANSDERMAL",12,"WEEK 24",168,"2013-12-06","2013-12-19",167,180
"231","CDISCPILOT01","EX","01-706-1041",1,"PLACEBO",0,"mg","PATCH","QD","TRANSDERMAL",3,"BASELINE",1,"2013-12-31","2014-01-14",1,15
"232","CDISCPILOT01","EX","01-706-1041",2,"PLACEBO",0,"mg","PATCH","QD","TRANSDERMAL",4,"WEEK 2",14,"2014-01-15","2014-07-15",16,197
"233","CDISCPILOT01","EX","01-706-1041",3,"PLACEBO",0,"mg","PATCH","QD","TRANSDERMAL",12,"WEEK 24",168,"2014-07-16","2014-07-28",198,210
"234","CDISCPILOT01","EX","01-706-1049",1,"XANOMELINE",54,"mg","PATCH","QD","TRANSDERMAL",3,"BASELINE",1,"2013-05-14","2013-05-28",1,15
"235","CDISCPILOT01","EX","01-706-1049",2,"XANOMELINE",81,"mg","PATCH","QD","TRANSDERMAL",4,"WEEK 2",14,"2013-05-29","2013-06-18",16,36
"236","CDISCPILOT01","EX","01-706-1384",1,"XANOMELINE",54,"mg","PATCH","QD","TRANSDERMAL",3,"BASELINE",1,"2012-09-15","2012-09-24",1,10
"237","CDISCPILOT01","EX","01-707-1037",1,"XANOMELINE",54,"mg","PATCH","QD","TRANSDERMAL",3,"BASELINE",1,"2013-12-20","2013-12-24",1,5
"238","CDISCPILOT01","EX","01-707-1206",1,"PLACEBO",0,"mg","PATCH","QD","TRANSDERMAL",3,"BASELINE",1,"2013-10-28","2013-11-12",1,16
"239","CDISCPILOT01","EX","01-707-1206",2,"PLACEBO",0,"mg","PATCH","QD","TRANSDERMAL",4,"WEEK 2",14,"2013-11-13","2014-04-13",17,168
"240","CDISCPILOT01","EX","01-707-1206",3,"PLACEBO",0,"mg","PATCH","QD","TRANSDERMAL",12,"WEEK 24",168,"2014-04-14","2014-04-26",169,181
"241","CDISCPILOT01","EX","01-708-1019",1,"XANOMELINE",54,"mg","PATCH","QD","TRANSDERMAL",3,"BASELINE",1,"2013-12-20","2014-01-01",1,13
"242","CDISCPILOT01","EX","01-708-1032",1,"XANOMELINE",54,"mg","PATCH","QD","TRANSDERMAL",3,"BASELINE",1,"2013-02-09","2013-02-23",1,15
"243","CDISCPILOT01","EX","01-708-1032",2,"XANOMELINE",54,"mg","PATCH","QD","TRANSDERMAL",4,"WEEK 2",14,"2013-02-24","2013-03-01",16,21
"244","CDISCPILOT01","EX","01-708-1084",1,"XANOMELINE",54,"mg","PATCH","QD","TRANSDERMAL",3,"BASELINE",1,"2013-05-09","2013-05-23",1,15
"245","CDISCPILOT01","EX","01-708-1084",2,"XANOMELINE",54,"mg","PATCH","QD","TRANSDERMAL",4,"WEEK 2",14,"2013-05-24","2013-10-28",16,173
"246","CDISCPILOT01","EX","01-708-1084",3,"XANOMELINE",54,"mg","PATCH","QD","TRANSDERMAL",12,"WEEK 24",168,"2013-10-29","2013-11-11",174,187
"247","CDISCPILOT01","EX","01-708-1087",1,"PLACEBO",0,"mg","PATCH","QD","TRANSDERMAL",3,"BASELINE",1,"2012-10-22","2012-11-05",1,15
"248","CDISCPILOT01","EX","01-708-1087",2,"PLACEBO",0,"mg","PATCH","QD","TRANSDERMAL",4,"WEEK 2",14,"2012-11-06","2013-04-10",16,171
"249","CDISCPILOT01","EX","01-708-1087",3,"PLACEBO",0,"mg","PATCH","QD","TRANSDERMAL",12,"WEEK 24",168,"2013-04-11","2013-04-28",172,189
"250","CDISCPILOT01","EX","01-708-1158",1,"PLACEBO",0,"mg","PATCH","QD","TRANSDERMAL",3,"BASELINE",1,"2014-02-08","2014-02-26",1,19
"251","CDISCPILOT01","EX","01-708-1158",2,"PLACEBO",0,"mg","PATCH","QD","TRANSDERMAL",4,"WEEK 2",14,"2014-02-27","2014-03-21",20,42
"252","CDISCPILOT01","EX","01-708-1171",1,"PLACEBO",0,"mg","PATCH","QD","TRANSDERMAL",3,"BASELINE",1,"2012-12-06","2012-12-18",1,13
"253","CDISCPILOT01","EX","01-708-1171",2,"PLACEBO",0,"mg","PATCH","QD","TRANSDERMAL",4,"WEEK 2",14,"2012-12-19","2013-05-20",14,166
"254","CDISCPILOT01","EX","01-708-1171",3,"PLACEBO",0,"mg","PATCH","QD","TRANSDERMAL",12,"WEEK 24",168,"2013-05-21","2013-06-04",167,181
"255","CDISCPILOT01","EX","01-708-1178",1,"XANOMELINE",54,"mg","PATCH","QD","TRANSDERMAL",3,"BASELINE",1,"2013-12-29","2014-01-18",1,21
"256","CDISCPILOT01","EX","01-708-1178",2,"XANOMELINE",81,"mg","PATCH","QD","TRANSDERMAL",4,"WEEK 2",14,"2014-01-19","2014-04-06",22,99
"257","CDISCPILOT01","EX","01-708-1213",1,"XANOMELINE",54,"mg","PATCH","QD","TRANSDERMAL",3,"BASELINE",1,"2013-02-09","2013-02-22",1,14
"258","CDISCPILOT01","EX","01-708-1216",1,"XANOMELINE",54,"mg","PATCH","QD","TRANSDERMAL",3,"BASELINE",1,"2012-10-24","2012-11-08",1,16
"259","CDISCPILOT01","EX","01-708-1216",2,"XANOMELINE",81,"mg","PATCH","QD","TRANSDERMAL",4,"WEEK 2",14,"2012-11-09","2012-11-29",17,37
"260","CDISCPILOT01","EX","01-708-1236",1,"XANOMELINE",54,"mg","PATCH","QD","TRANSDERMAL",3,"BASELINE",1,"2013-09-21","2013-09-21",1,1
"261","CDISCPILOT01","EX","01-708-1253",1,"PLACEBO",0,"mg","PATCH","QD","TRANSDERMAL",3,"BASELINE",1,"2013-05-07","2013-05-21",1,15
"262","CDISCPILOT01","EX","01-708-1253",2,"PLACEBO",0,"mg","PATCH","QD","TRANSDERMAL",4,"WEEK 2",14,"2013-05-22","2013-10-27",16,174
"263","CDISCPILOT01","EX","01-708-1253",3,"PLACEBO",0,"mg","PATCH","QD","TRANSDERMAL",12,"WEEK 24",168,"2013-10-28","2013-11-05",175,183
"264","CDISCPILOT01","EX","01-708-1272",1,"XANOMELINE",54,"mg","PATCH","QD","TRANSDERMAL",3,"BASELINE",1,"2013-02-06","2013-02-21",1,16
"265","CDISCPILOT01","EX","01-708-1272",2,"XANOMELINE",54,"mg","PATCH","QD","TRANSDERMAL",4,"WEEK 2",14,"2013-02-22","2013-03-22",17,45
"266","CDISCPILOT01","EX","01-708-1286",1,"PLACEBO",0,"mg","PATCH","QD","TRANSDERMAL",3,"BASELINE",1,"2013-09-10","2013-09-23",1,14
"267","CDISCPILOT01","EX","01-708-1286",2,"PLACEBO",0,"mg","PATCH","QD","TRANSDERMAL",4,"WEEK 2",14,"2013-09-24","2014-02-23",15,167
"268","CDISCPILOT01","EX","01-708-1286",3,"PLACEBO",0,"mg","PATCH","QD","TRANSDERMAL",12,"WEEK 24",168,"2014-02-24","2014-03-08",168,180
"269","CDISCPILOT01","EX","01-708-1296",1,"PLACEBO",0,"mg","PATCH","QD","TRANSDERMAL",3,"BASELINE",1,"2013-06-14","2013-06-27",1,14
"270","CDISCPILOT01","EX","01-708-1296",2,"PLACEBO",0,"mg","PATCH","QD","TRANSDERMAL",4,"WEEK 2",14,"2013-06-28","2013-11-27",15,167
"271","CDISCPILOT01","EX","01-708-1296",3,"PLACEBO",0,"mg","PATCH","QD","TRANSDERMAL",12,"WEEK 24",168,"2013-11-28","2013-12-12",168,182
"272","CDISCPILOT01","EX","01-708-1297",1,"XANOMELINE",54,"mg","PATCH","QD","TRANSDERMAL",3,"BASELINE",1,"2013-01-25","2013-02-08",1,15
"273","CDISCPILOT01","EX","01-708-1297",2,"XANOMELINE",54,"mg","PATCH","QD","TRANSDERMAL",4,"WEEK 2",14,"2013-02-09","2013-05-03",16,99
"274","CDISCPILOT01","EX","01-708-1316",1,"PLACEBO",0,"mg","PATCH","QD","TRANSDERMAL",3,"BASELINE",1,"2013-08-23","2013-09-05",1,14
"275","CDISCPILOT01","EX","01-708-1316",2,"PLACEBO",0,"mg","PATCH","QD","TRANSDERMAL",4,"WEEK 2",14,"2013-09-06","2014-02-15",15,177
"276","CDISCPILOT01","EX","01-708-1316",3,"PLACEBO",0,"mg","PATCH","QD","TRANSDERMAL",12,"WEEK 24",168,"2014-02-16","2014-03-01",178,191
"277","CDISCPILOT01","EX","01-708-1336",1,"XANOMELINE",54,"mg","PATCH","QD","TRANSDERMAL",3,"BASELINE",1,"2012-12-07","2012-12-21",1,15
"278","CDISCPILOT01","EX","01-708-1336",2,"XANOMELINE",81,"mg","PATCH","QD","TRANSDERMAL",4,"WEEK 2",14,"2012-12-22","2013-05-22",16,167
"279","CDISCPILOT01","EX","01-708-1336",3,"XANOMELINE",54,"mg","PATCH","QD","TRANSDERMAL",12,"WEEK 24",168,"2013-05-23","2013-06-05",168,181
"280","CDISCPILOT01","EX","01-708-1342",1,"PLACEBO",0,"mg","PATCH","QD","TRANSDERMAL",3,"BASELINE",1,"2012-12-29","2013-01-12",1,15
"281","CDISCPILOT01","EX","01-708-1342",2,"PLACEBO",0,"mg","PATCH","QD","TRANSDERMAL",4,"WEEK 2",14,"2013-01-13","2013-06-15",16,169
"282","CDISCPILOT01","EX","01-708-1342",3,"PLACEBO",0,"mg","PATCH","QD","TRANSDERMAL",12,"WEEK 24",168,"2013-06-16","2013-06-28",170,182
"283","CDISCPILOT01","EX","01-708-1347",1,"XANOMELINE",54,"mg","PATCH","QD","TRANSDERMAL",3,"BASELINE",1,"2013-04-20","2013-05-04",1,15
"284","CDISCPILOT01","EX","01-708-1347",2,"XANOMELINE",81,"mg","PATCH","QD","TRANSDERMAL",4,"WEEK 2",14,"2013-05-05","2013-06-18",16,60
"285","CDISCPILOT01","EX","01-708-1348",1,"XANOMELINE",54,"mg","PATCH","QD","TRANSDERMAL",3,"BASELINE",1,"2013-08-05","2013-08-19",1,15
"286","CDISCPILOT01","EX","01-708-1348",2,"XANOMELINE",54,"mg","PATCH","QD","TRANSDERMAL",4,"WEEK 2",14,"2013-08-20","2014-02-03",16,183
"287","CDISCPILOT01","EX","01-708-1348",3,"XANOMELINE",54,"mg","PATCH","QD","TRANSDERMAL",12,"WEEK 24",168,"2014-02-04","2014-02-13",184,193
"288","CDISCPILOT01","EX","01-708-1353",1,"XANOMELINE",54,"mg","PATCH","QD","TRANSDERMAL",3,"BASELINE",1,"2013-07-04","2013-07-18",1,15
"289","CDISCPILOT01","EX","01-708-1353",2,"XANOMELINE",54,"mg","PATCH","QD","TRANSDERMAL",4,"WEEK 2",14,"2013-07-19","2013-08-28",16,56
"290","CDISCPILOT01","EX","01-708-1372",1,"XANOMELINE",54,"mg","PATCH","QD","TRANSDERMAL",3,"BASELINE",1,"2013-04-12","2013-04-19",1,8
"291","CDISCPILOT01","EX","01-708-1378",1,"PLACEBO",0,"mg","PATCH","QD","TRANSDERMAL",3,"BASELINE",1,"2013-09-03","2013-09-21",1,19
"292","CDISCPILOT01","EX","01-708-1378",2,"PLACEBO",0,"mg","PATCH","QD","TRANSDERMAL",4,"WEEK 2",14,"2013-09-22","2014-01-28",20,148
"293","CDISCPILOT01","EX","01-708-1406",1,"XANOMELINE",54,"mg","PATCH","QD","TRANSDERMAL",3,"BASELINE",1,"2013-12-26","2014-01-09",1,15
"294","CDISCPILOT01","EX","01-708-1406",2,"XANOMELINE",81,"mg","PATCH","QD","TRANSDERMAL",4,"WEEK 2",14,"2014-01-10","2014-06-16",16,173
"295","CDISCPILOT01","EX","01-708-1406",3,"XANOMELINE",54,"mg","PATCH","QD","TRANSDERMAL",12,"WEEK 24",168,"2014-06-17","2014-07-02",174,189
"296","CDISCPILOT01","EX","01-708-1428",1,"XANOMELINE",54,"mg","PATCH","QD","TRANSDERMAL",3,"BASELINE",1,"2013-11-09","2013-11-23",1,15
"297","CDISCPILOT01","EX","01-708-1428",2,"XANOMELINE",54,"mg","PATCH","QD","TRANSDERMAL",4,"WEEK 2",14,"2013-11-24","2013-12-14",16,36
"298","CDISCPILOT01","EX","01-709-1001",1,"PLACEBO",0,"mg","PATCH","QD","TRANSDERMAL",3,"BASELINE",1,"2013-10-08","2013-10-22",1,15
"299","CDISCPILOT01","EX","01-709-1001",2,"PLACEBO",0,"mg","PATCH","QD","TRANSDERMAL",4,"WEEK 2",14,"2013-10-23","2014-03-17",16,161
"300","CDISCPILOT01","EX","01-709-1001",3,"PLACEBO",0,"mg","PATCH","QD","TRANSDERMAL",12,"WEEK 24",168,"2014-03-18","2014-04-08",162,183
"301","CDISCPILOT01","EX","01-709-1007",1,"XANOMELINE",54,"mg","PATCH","QD","TRANSDERMAL",3,"BASELINE",1,"2012-07-31","2012-08-18",1,19
"302","CDISCPILOT01","EX","01-709-1007",2,"XANOMELINE",54,"mg","PATCH","QD","TRANSDERMAL",4,"WEEK 2",14,"2012-08-19","2012-08-28",20,29
"303","CDISCPILOT01","EX","01-709-1020",1,"XANOMELINE",54,"mg","PATCH","QD","TRANSDERMAL",3,"BASELINE",1,"2012-12-01","2012-12-15",1,15
"304","CDISCPILOT01","EX","01-709-1020",2,"XANOMELINE",54,"mg","PATCH","QD","TRANSDERMAL",4,"WEEK 2",14,"2012-12-16","2013-05-18",16,169
"305","CDISCPILOT01","EX","01-709-1020",3,"XANOMELINE",54,"mg","PATCH","QD","TRANSDERMAL",12,"WEEK 24",168,"2013-05-19","2013-06-01",170,183
"306","CDISCPILOT01","EX","01-709-1029",1,"XANOMELINE",54,"mg","PATCH","QD","TRANSDERMAL",3,"BASELINE",1,"2012-12-25","2013-01-09",1,16
"307","CDISCPILOT01","EX","01-709-1029",2,"XANOMELINE",81,"mg","PATCH","QD","TRANSDERMAL",4,"WEEK 2",14,"2013-01-10","2013-06-12",17,170
"308","CDISCPILOT01","EX","01-709-1029",3,"XANOMELINE",54,"mg","PATCH","QD","TRANSDERMAL",12,"WEEK 24",168,"2013-06-13","2013-06-26",171,184
"309","CDISCPILOT01","EX","01-709-1081",1,"XANOMELINE",54,"mg","PATCH","QD","TRANSDERMAL",3,"BASELINE",1,"2014-01-18","2014-02-01",1,15
"310","CDISCPILOT01","EX","01-709-1081",2,"XANOMELINE",54,"mg","PATCH","QD","TRANSDERMAL",4,"WEEK 2",14,"2014-02-02","2014-04-27",16,100
"311","CDISCPILOT01","EX","01-709-1088",1,"PLACEBO",0,"mg","PATCH","QD","TRANSDERMAL",3,"BASELINE",1,"2014-04-12","2014-04-26",1,15
"312","CDISCPILOT01","EX","01-709-1088",2,"PLACEBO",0,"mg","PATCH","QD","TRANSDERMAL",4,"WEEK 2",14,"2014-04-27","2014-09-27",16,169
"313","CDISCPILOT01","EX","01-709-1088",3,"PLACEBO",0,"mg","PATCH","QD","TRANSDERMAL",12,"WEEK 24",168,"2014-09-28","2014-10-09",170,181
"314","CDISCPILOT01","EX","01-709-1099",1,"XANOMELINE",54,"mg","PATCH","QD","TRANSDERMAL",3,"BASELINE",1,"2013-10-25","2013-11-12",1,19
"315","CDISCPILOT01","EX","01-709-1099",2,"XANOMELINE",81,"mg","PATCH","QD","TRANSDERMAL",4,"WEEK 2",14,"2013-11-13","2014-04-11",20,169
"316","CDISCPILOT01","EX","01-709-1099",3,"XANOMELINE",54,"mg","PATCH","QD","TRANSDERMAL",12,"WEEK 24",168,"2014-04-12","2014-04-25",170,183
"317","CDISCPILOT01","EX","01-709-1102",1,"XANOMELINE",54,"mg","PATCH","QD","TRANSDERMAL",3,"BASELINE",1,"2013-01-15","2013-01-31",1,17
"318","CDISCPILOT01","EX","01-709-1102",2,"XANOMELINE",54,"mg","PATCH","QD","TRANSDERMAL",4,"WEEK 2",14,"2013-02-01","2013-03-27",18,72
"319","CDISCPILOT01","EX","01-709-1168",1,"XANOMELINE",54,"mg","PATCH","QD","TRANSDERMAL",3,"BASELINE",1,"2013-08-02","2013-08-17",1,16
"320","CDISCPILOT01","EX","01-709-1168",2,"XANOMELINE",81,"mg","PATCH","QD","TRANSDERMAL",4,"WEEK 2",14,"2013-08-18","2013-09-26",17,56
"321","CDISCPILOT01","EX","01-709-1217",1,"XANOMELINE",54,"mg","PATCH","QD","TRANSDERMAL",3,"BASELINE",1,"2013-03-04","2013-03-19",1,16
"322","CDISCPILOT01","EX","01-709-1217",2,"XANOMELINE",54,"mg","PATCH","QD","TRANSDERMAL",4,"WEEK 2",14,"2013-03-20","2013-06-11",17,100
"323","CDISCPILOT01","EX","01-709-1238",1,"XANOMELINE",54,"mg","PATCH","QD","TRANSDERMAL",3,"BASELINE",1,"2013-05-15","2013-05-29",1,15
"324","CDISCPILOT01","EX","01-709-1238",2,"XANOMELINE",81,"mg","PATCH","QD","TRANSDERMAL",4,"WEEK 2",14,"2013-05-30","2013-08-06",16,84
"325","CDISCPILOT01","EX","01-709-1259",1,"PLACEBO",0,"mg","PATCH","QD","TRANSDERMAL",3,"BASELINE",1,"2013-01-26","2013-02-10",1,16
"326","CDISCPILOT01","EX","01-709-1259",2,"PLACEBO",0,"mg","PATCH","QD","TRANSDERMAL",4,"WEEK 2",14,"2013-02-11","2013-06-13",17,139
"327","CDISCPILOT01","EX","01-709-1285",1,"XANOMELINE",54,"mg","PATCH","QD","TRANSDERMAL",3,"BASELINE",1,"2013-03-24","2013-04-08",1,16
"328","CDISCPILOT01","EX","01-709-1285",2,"XANOMELINE",54,"mg","PATCH","QD","TRANSDERMAL",4,"WEEK 2",14,"2013-04-09","2013-05-23",17,61
"329","CDISCPILOT01","EX","01-709-1301",1,"PLACEBO",0,"mg","PATCH","QD","TRANSDERMAL",3,"BASELINE",1,"2013-07-19","2013-08-02",1,15
"330","CDISCPILOT01","EX","01-709-1301",2,"PLACEBO",0,"mg","PATCH","QD","TRANSDERMAL",4,"WEEK 2",14,"2013-08-03","2014-01-04",16,170
"331","CDISCPILOT01","EX","01-709-1301",3,"PLACEBO",0,"mg","PATCH","QD","TRANSDERMAL",12,"WEEK 24",168,"2014-01-05","2014-01-17",171,183
"332","CDISCPILOT01","EX","01-709-1306",1,"PLACEBO",0,"mg","PATCH","QD","TRANSDERMAL",3,"BASELINE",1,"2014-02-03","2014-02-19",1,17
"333","CDISCPILOT01","EX","01-709-1306",2,"PLACEBO",0,"mg","PATCH","QD","TRANSDERMAL",4,"WEEK 2",14,"2014-02-20","2014-06-16",18,134
"334","CDISCPILOT01","EX","01-709-1309",1,"XANOMELINE",54,"mg","PATCH","QD","TRANSDERMAL",3,"BASELINE",1,"2013-06-19","2013-07-01",1,13
"335","CDISCPILOT01","EX","01-709-1309",2,"XANOMELINE",81,"mg","PATCH","QD","TRANSDERMAL",4,"WEEK 2",14,"2013-07-02","2013-12-05",14,170
"336","CDISCPILOT01","EX","01-709-1309",3,"XANOMELINE",54,"mg","PATCH","QD","TRANSDERMAL",12,"WEEK 24",168,"2013-12-06","2013-12-19",171,184
"337","CDISCPILOT01","EX","01-709-1312",1,"PLACEBO",0,"mg","PATCH","QD","TRANSDERMAL",3,"BASELINE",1,"2014-04-20","2014-05-10",1,21
"338","CDISCPILOT01","EX","01-709-1312",2,"PLACEBO",0,"mg","PATCH","QD","TRANSDERMAL",4,"WEEK 2",14,"2014-05-11","2014-10-05",22,169
"339","CDISCPILOT01","EX","01-709-1312",3,"PLACEBO",0,"mg","PATCH","QD","TRANSDERMAL",12,"WEEK 24",168,"2014-10-06","2014-10-19",170,183
"340","CDISCPILOT01","EX","01-709-1326",1,"XANOMELINE",54,"mg","PATCH","QD","TRANSDERMAL",3,"BASELINE",1,"2013-04-05","2013-04-18",1,14
"341","CDISCPILOT01","EX","01-709-1326",2,"XANOMELINE",54,"mg","PATCH","QD","TRANSDERMAL",4,"WEEK 2",14,"2013-04-19","2013-09-20",15,169
"342","CDISCPILOT01","EX","01-709-1326",3,"XANOMELINE",54,"mg","PATCH","QD","TRANSDERMAL",12,"WEEK 24",168,"2013-09-21","2013-10-02",170,181
"343","CDISCPILOT01","EX","01-709-1329",1,"XANOMELINE",54,"mg","PATCH","QD","TRANSDERMAL",3,"BASELINE",1,"2013-08-15","2013-08-25",1,11
"344","CDISCPILOT01","EX","01-709-1339",1,"PLACEBO",0,"mg","PATCH","QD","TRANSDERMAL",3,"BASELINE",1,"2012-12-23","2013-01-05",1,14
"345","CDISCPILOT01","EX","01-709-1339",2,"PLACEBO",0,"mg","PATCH","QD","TRANSDERMAL",4,"WEEK 2",14,"2013-01-06","2013-06-08",15,168
"346","CDISCPILOT01","EX","01-709-1339",3,"PLACEBO",0,"mg","PATCH","QD","TRANSDERMAL",12,"WEEK 24",168,"2013-06-09","2013-06-24",169,184
"347","CDISCPILOT01","EX","01-709-1424",1,"XANOMELINE",54,"mg","PATCH","QD","TRANSDERMAL",3,"BASELINE",1,"2013-03-03","2013-03-07",1,5
"348","CDISCPILOT01","EX","01-710-1002",1,"XANOMELINE",54,"mg","PATCH","QD","TRANSDERMAL",3,"BASELINE",1,"2014-01-14","2014-01-18",1,5
"349","CDISCPILOT01","EX","01-710-1006",1,"XANOMELINE",54,"mg","PATCH","QD","TRANSDERMAL",3,"BASELINE",1,"2013-02-10","2013-02-22",1,13
"350","CDISCPILOT01","EX","01-710-1006",2,"XANOMELINE",81,"mg","PATCH","QD","TRANSDERMAL",4,"WEEK 2",14,"2013-02-23","2013-07-27",14,168
"351","CDISCPILOT01","EX","01-710-1006",3,"XANOMELINE",54,"mg","PATCH","QD","TRANSDERMAL",12,"WEEK 24",168,"2013-07-28","2013-08-09",169,181
"352","CDISCPILOT01","EX","01-710-1021",1,"XANOMELINE",54,"mg","PATCH","QD","TRANSDERMAL",3,"BASELINE",1,"2013-09-27","2013-10-11",1,15
"353","CDISCPILOT01","EX","01-710-1021",2,"XANOMELINE",81,"mg","PATCH","QD","TRANSDERMAL",4,"WEEK 2",14,"2013-10-12","2013-10-29",16,33
"354","CDISCPILOT01","EX","01-710-1027",1,"PLACEBO",0,"mg","PATCH","QD","TRANSDERMAL",3,"BASELINE",1,"2014-02-28","2014-03-14",1,15
"355","CDISCPILOT01","EX","01-710-1027",2,"PLACEBO",0,"mg","PATCH","QD","TRANSDERMAL",4,"WEEK 2",14,"2014-03-15","2014-08-19",16,173
"356","CDISCPILOT01","EX","01-710-1027",3,"PLACEBO",0,"mg","PATCH","QD","TRANSDERMAL",12,"WEEK 24",168,"2014-08-20","2014-08-29",174,183
"357","CDISCPILOT01","EX","01-710-1045",1,"XANOMELINE",54,"mg","PATCH","QD","TRANSDERMAL",3,"BASELINE",1,"2013-06-03","2013-06-17",1,15
"358","CDISCPILOT01","EX","01-710-1045",2,"XANOMELINE",54,"mg","PATCH","QD","TRANSDERMAL",4,"WEEK 2",14,"2013-06-18","2013-08-13",16,72
"359","CDISCPILOT01","EX","01-710-1053",1,"XANOMELINE",54,"mg","PATCH","QD","TRANSDERMAL",3,"BASELINE",1,"2012-12-26","2013-01-09",1,15
"360","CDISCPILOT01","EX","01-710-1053",2,"XANOMELINE",54,"mg","PATCH","QD","TRANSDERMAL",4,"WEEK 2",14,"2013-01-10","2013-02-10",16,47
"361","CDISCPILOT01","EX","01-710-1060",1,"PLACEBO",0,"mg","PATCH","QD","TRANSDERMAL",3,"BASELINE",1,"2013-01-01","2013-01-15",1,15
"362","CDISCPILOT01","EX","01-710-1060",2,"PLACEBO",0,"mg","PATCH","QD","TRANSDERMAL",4,"WEEK 2",14,"2013-01-16","2013-06-21",16,172
"363","CDISCPILOT01","EX","01-710-1060",3,"PLACEBO",0,"mg","PATCH","QD","TRANSDERMAL",12,"WEEK 24",168,"2013-06-22","2013-07-05",173,186
"364","CDISCPILOT01","EX","01-710-1070",1,"XANOMELINE",54,"mg","PATCH","QD","TRANSDERMAL",3,"BASELINE",1,"2012-09-08","2012-09-22",1,15
"365","CDISCPILOT01","EX","01-710-1070",2,"XANOMELINE",81,"mg","PATCH","QD","TRANSDERMAL",4,"WEEK 2",14,"2012-09-23","2013-01-22",16,137
"366","CDISCPILOT01","EX","01-710-1077",1,"PLACEBO",0,"mg","PATCH","QD","TRANSDERMAL",3,"BASELINE",1,"2013-11-17","2013-12-01",1,15
"367","CDISCPILOT01","EX","01-710-1077",2,"PLACEBO",0,"mg","PATCH","QD","TRANSDERMAL",4,"WEEK 2",14,"2013-12-02","2014-05-03",16,168
"368","CDISCPILOT01","EX","01-710-1077",3,"PLACEBO",0,"mg","PATCH","QD","TRANSDERMAL",12,"WEEK 24",168,"2014-05-04","2014-05-18",169,183
"369","CDISCPILOT01","EX","01-710-1078",1,"PLACEBO",0,"mg","PATCH","QD","TRANSDERMAL",3,"BASELINE",1,"2013-09-17","2013-10-06",1,20
"370","CDISCPILOT01","EX","01-710-1078",2,"PLACEBO",0,"mg","PATCH","QD","TRANSDERMAL",4,"WEEK 2",14,"2013-10-07","2014-03-08",21,173
"371","CDISCPILOT01","EX","01-710-1078",3,"PLACEBO",0,"mg","PATCH","QD","TRANSDERMAL",12,"WEEK 24",168,"2014-03-09","2014-03-23",174,188
"372","CDISCPILOT01","EX","01-710-1083",1,"PLACEBO",0,"mg","PATCH","QD","TRANSDERMAL",3,"BASELINE",1,"2013-07-22","2013-08-01",1,11
"373","CDISCPILOT01","EX","01-710-1137",1,"XANOMELINE",54,"mg","PATCH","QD","TRANSDERMAL",3,"BASELINE",1,"2013-10-11","2013-10-25",1,15
"374","CDISCPILOT01","EX","01-710-1137",2,"XANOMELINE",81,"mg","PATCH","QD","TRANSDERMAL",4,"WEEK 2",14,"2013-10-26","2013-11-13",16,34
"375","CDISCPILOT01","EX","01-710-1142",1,"XANOMELINE",54,"mg","PATCH","QD","TRANSDERMAL",3,"BASELINE",1,"2012-10-02","2012-10-16",1,15
"376","CDISCPILOT01","EX","01-710-1142",2,"XANOMELINE",81,"mg","PATCH","QD","TRANSDERMAL",4,"WEEK 2",14,"2012-10-17","2012-10-20",16,19
"377","CDISCPILOT01","EX","01-710-1154",1,"XANOMELINE",54,"mg","PATCH","QD","TRANSDERMAL",3,"BASELINE",1,"2014-03-29","2014-04-12",1,15
"378","CDISCPILOT01","EX","01-710-1154",2,"XANOMELINE",54,"mg","PATCH","QD","TRANSDERMAL",4,"WEEK 2",14,"2014-04-13","2014-04-27",16,30
"379","CDISCPILOT01","EX","01-710-1166",1,"XANOMELINE",54,"mg","PATCH","QD","TRANSDERMAL",3,"BASELINE",1,"2012-11-30","2012-12-14",1,15
"380","CDISCPILOT01","EX","01-710-1166",2,"XANOMELINE",54,"mg","PATCH","QD","TRANSDERMAL",4,"WEEK 2",14,"2012-12-15","2013-03-19",16,110
"381","CDISCPILOT01","EX","01-710-1183",1,"PLACEBO",0,"mg","PATCH","QD","TRANSDERMAL",3,"BASELINE",1,"2013-11-16","2013-11-30",1,15
"382","CDISCPILOT01","EX","01-710-1183",2,"PLACEBO",0,"mg","PATCH","QD","TRANSDERMAL",4,"WEEK 2",14,"2013-12-01","2014-05-03",16,169
"383","CDISCPILOT01","EX","01-710-1183",3,"PLACEBO",0,"mg","PATCH","QD","TRANSDERMAL",12,"WEEK 24",168,"2014-05-04","2014-05-17",170,183
"384","CDISCPILOT01","EX","01-710-1187",1,"XANOMELINE",54,"mg","PATCH","QD","TRANSDERMAL",3,"BASELINE",1,"2012-11-10","2012-11-24",1,15
"385","CDISCPILOT01","EX","01-710-1187",2,"XANOMELINE",81,"mg","PATCH","QD","TRANSDERMAL",4,"WEEK 2",14,"2012-11-25","2013-04-28",16,170
"386","CDISCPILOT01","EX","01-710-1187",3,"XANOMELINE",54,"mg","PATCH","QD","TRANSDERMAL",12,"WEEK 24",168,"2013-04-29","2013-05-12",171,184
"387","CDISCPILOT01","EX","01-710-1235",1,"XANOMELINE",54,"mg","PATCH","QD","TRANSDERMAL",3,"BASELINE",1,"2012-09-26","2012-10-10",1,15
"388","CDISCPILOT01","EX","01-710-1235",2,"XANOMELINE",54,"mg","PATCH","QD","TRANSDERMAL",4,"WEEK 2",14,"2012-10-11","2013-03-13",16,169
"389","CDISCPILOT01","EX","01-710-1235",3,"XANOMELINE",54,"mg","PATCH","QD","TRANSDERMAL",12,"WEEK 24",168,"2013-03-14","2013-03-27",170,183
"390","CDISCPILOT01","EX","01-710-1249",1,"XANOMELINE",54,"mg","PATCH","QD","TRANSDERMAL",3,"BASELINE",1,"2013-12-28","2014-01-11",1,15
"391","CDISCPILOT01","EX","01-710-1249",2,"XANOMELINE",81,"mg","PATCH","QD","TRANSDERMAL",4,"WEEK 2",14,"2014-01-12","2014-06-14",16,169
"392","CDISCPILOT01","EX","01-710-1249",3,"XANOMELINE",54,"mg","PATCH","QD","TRANSDERMAL",12,"WEEK 24",168,"2014-06-15","2014-06-28",170,183
"393","CDISCPILOT01","EX","01-710-1264",1,"PLACEBO",0,"mg","PATCH","QD","TRANSDERMAL",3,"BASELINE",1,"2013-06-13","2013-06-27",1,15
"394","CDISCPILOT01","EX","01-710-1264",2,"PLACEBO",0,"mg","PATCH","QD","TRANSDERMAL",4,"WEEK 2",14,"2013-06-28","2013-10-11",16,121
"395","CDISCPILOT01","EX","01-710-1270",1,"XANOMELINE",54,"mg","PATCH","QD","TRANSDERMAL",3,"BASELINE",1,"2014-02-12","2014-03-01",1,18
"396","CDISCPILOT01","EX","01-710-1271",1,"PLACEBO",0,"mg","PATCH","QD","TRANSDERMAL",3,"BASELINE",1,"2012-09-27","2012-10-12",1,16
"397","CDISCPILOT01","EX","01-710-1271",2,"PLACEBO",0,"mg","PATCH","QD","TRANSDERMAL",4,"WEEK 2",14,"2012-10-13","2012-11-21",17,56
"398","CDISCPILOT01","EX","01-710-1278",1,"XANOMELINE",54,"mg","PATCH","QD","TRANSDERMAL",3,"BASELINE",1,"2012-12-24","2013-01-07",1,15
"399","CDISCPILOT01","EX","01-710-1278",2,"XANOMELINE",81,"mg","PATCH","QD","TRANSDERMAL",4,"WEEK 2",14,"2013-01-08","2013-02-26",16,65
"400","CDISCPILOT01","EX","01-710-1300",1,"XANOMELINE",54,"mg","PATCH","QD","TRANSDERMAL",3,"BASELINE",1,"2012-12-15","2012-12-30",1,16
"401","CDISCPILOT01","EX","01-710-1300",2,"XANOMELINE",54,"mg","PATCH","QD","TRANSDERMAL",4,"WEEK 2",14,"2012-12-31","2013-02-15",17,63
"402","CDISCPILOT01","EX","01-710-1314",1,"PLACEBO",0,"mg","PATCH","QD","TRANSDERMAL",3,"BASELINE",1,"2013-04-24","2013-05-09",1,16
"403","CDISCPILOT01","EX","01-710-1314",2,"PLACEBO",0,"mg","PATCH","QD","TRANSDERMAL",4,"WEEK 2",14,"2013-05-10","2013-05-23",17,30
"404","CDISCPILOT01","EX","01-710-1315",1,"PLACEBO",0,"mg","PATCH","QD","TRANSDERMAL",3,"BASELINE",1,"2013-02-27","2013-03-13",1,15
"405","CDISCPILOT01","EX","01-710-1315",2,"PLACEBO",0,"mg","PATCH","QD","TRANSDERMAL",4,"WEEK 2",14,"2013-03-14","2013-07-06",16,130
"406","CDISCPILOT01","EX","01-710-1354",1,"XANOMELINE",54,"mg","PATCH","QD","TRANSDERMAL",3,"BASELINE",1,"2012-11-11","2012-11-25",1,15
"407","CDISCPILOT01","EX","01-710-1354",2,"XANOMELINE",81,"mg","PATCH","QD","TRANSDERMAL",4,"WEEK 2",14,"2012-11-26","2013-04-21",16,162
"408","CDISCPILOT01","EX","01-710-1354",3,"XANOMELINE",54,"mg","PATCH","QD","TRANSDERMAL",12,"WEEK 24",168,"2013-04-22","2013-05-01",163,172
"409","CDISCPILOT01","EX","01-710-1358",1,"XANOMELINE",54,"mg","PATCH","QD","TRANSDERMAL",3,"BASELINE",1,"2012-09-17","2012-10-01",1,15
"410","CDISCPILOT01","EX","01-710-1358",2,"XANOMELINE",54,"mg","PATCH","QD","TRANSDERMAL",4,"WEEK 2",14,"2012-10-02","2013-02-09",16,146
"411","CDISCPILOT01","EX","01-710-1368",1,"PLACEBO",0,"mg","PATCH","QD","TRANSDERMAL",3,"BASELINE",1,"2013-10-23","2013-11-06",1,15
"412","CDISCPILOT01","EX","01-710-1368",2,"PLACEBO",0,"mg","PATCH","QD","TRANSDERMAL",4,"WEEK 2",14,"2013-11-07","2014-04-09",16,169
"413","CDISCPILOT01","EX","01-710-1368",3,"PLACEBO",0,"mg","PATCH","QD","TRANSDERMAL",12,"WEEK 24",168,"2014-04-10","2014-04-24",170,184
"414","CDISCPILOT01","EX","01-710-1385",1,"XANOMELINE",54,"mg","PATCH","QD","TRANSDERMAL",3,"BASELINE",1,"2012-10-29","2012-11-12",1,15
"415","CDISCPILOT01","EX","01-710-1385",2,"XANOMELINE",54,"mg","PATCH","QD","TRANSDERMAL",4,"WEEK 2",14,"2012-11-13","2013-02-18",16,113
"416","CDISCPILOT01","EX","01-710-1408",1,"XANOMELINE",54,"mg","PATCH","QD","TRANSDERMAL",3,"BASELINE",1,"2013-01-05","2013-01-24",1,20
"417","CDISCPILOT01","EX","01-710-1408",2,"XANOMELINE",81,"mg","PATCH","QD","TRANSDERMAL",4,"WEEK 2",14,"2013-01-25","2013-06-28",21,175
"418","CDISCPILOT01","EX","01-710-1408",3,"XANOMELINE",54,"mg","PATCH","QD","TRANSDERMAL",12,"WEEK 24",168,"2013-06-29","2013-07-12",176,189
"419","CDISCPILOT01","EX","01-711-1012",1,"XANOMELINE",54,"mg","PATCH","QD","TRANSDERMAL",3,"BASELINE",1,"2013-04-03","2013-04-17",1,15
"420","CDISCPILOT01","EX","01-711-1012",2,"XANOMELINE",81,"mg","PATCH","QD","TRANSDERMAL",4,"WEEK 2",14,"2013-04-18","2013-04-29",16,27
"421","CDISCPILOT01","EX","01-711-1036",1,"PLACEBO",0,"mg","PATCH","QD","TRANSDERMAL",3,"BASELINE",1,"2012-07-29","2012-08-12",1,15
"422","CDISCPILOT01","EX","01-711-1036",2,"PLACEBO",0,"mg","PATCH","QD","TRANSDERMAL",4,"WEEK 2",14,"2012-08-13","2013-01-13",16,169
"423","CDISCPILOT01","EX","01-711-1036",3,"PLACEBO",0,"mg","PATCH","QD","TRANSDERMAL",12,"WEEK 24",168,"2013-01-14","2013-02-10",170,197
"424","CDISCPILOT01","EX","01-711-1143",1,"XANOMELINE",54,"mg","PATCH","QD","TRANSDERMAL",3,"BASELINE",1,"2013-04-03","2013-04-17",1,15
"425","CDISCPILOT01","EX","01-711-1143",2,"XANOMELINE",54,"mg","PATCH","QD","TRANSDERMAL",4,"WEEK 2",14,"2013-04-18","2013-05-30",16,58
"426","CDISCPILOT01","EX","01-711-1433",1,"XANOMELINE",54,"mg","PATCH","QD","TRANSDERMAL",3,"BASELINE",1,"2013-01-27","2013-02-05",1,10
"427","CDISCPILOT01","EX","01-713-1043",1,"XANOMELINE",54,"mg","PATCH","QD","TRANSDERMAL",3,"BASELINE",1,"2013-09-15","2013-09-30",1,16
"428","CDISCPILOT01","EX","01-713-1043",2,"XANOMELINE",54,"mg","PATCH","QD","TRANSDERMAL",4,"WEEK 2",14,"2013-10-01","2014-02-28",17,167
"429","CDISCPILOT01","EX","01-713-1043",3,"XANOMELINE",54,"mg","PATCH","QD","TRANSDERMAL",12,"WEEK 24",168,"2014-03-01","2014-03-24",168,191
"430","CDISCPILOT01","EX","01-713-1073",1,"XANOMELINE",54,"mg","PATCH","QD","TRANSDERMAL",3,"BASELINE",1,"2014-03-30","2014-04-14",1,16
"431","CDISCPILOT01","EX","01-713-1073",2,"XANOMELINE",54,"mg","PATCH","QD","TRANSDERMAL",4,"WEEK 2",14,"2014-04-15","2014-09-21",17,176
"432","CDISCPILOT01","EX","01-713-1073",3,"XANOMELINE",54,"mg","PATCH","QD","TRANSDERMAL",12,"WEEK 24",168,"2014-09-22","2014-10-05",177,190
"433","CDISCPILOT01","EX","01-713-1106",1,"XANOMELINE",54,"mg","PATCH","QD","TRANSDERMAL",3,"BASELINE",1,"2012-10-31","2012-11-15",1,16
"434","CDISCPILOT01","EX","01-713-1106",2,"XANOMELINE",81,"mg","PATCH","QD","TRANSDERMAL",4,"WEEK 2",14,"2012-11-16","2013-04-22",17,174
"435","CDISCPILOT01","EX","01-713-1106",3,"XANOMELINE",54,"mg","PATCH","QD","TRANSDERMAL",12,"WEEK 24",168,"2013-04-23","2013-05-06",175,188
"436","CDISCPILOT01","EX","01-713-1141",1,"XANOMELINE",54,"mg","PATCH","QD","TRANSDERMAL",3,"BASELINE",1,"2013-05-31","2013-06-14",1,15
"437","CDISCPILOT01","EX","01-713-1141",2,"XANOMELINE",81,"mg","PATCH","QD","TRANSDERMAL",4,"WEEK 2",14,"2013-06-15","2013-07-01",16,32
"438","CDISCPILOT01","EX","01-713-1179",1,"PLACEBO",0,"mg","PATCH","QD","TRANSDERMAL",3,"BASELINE",1,"2013-08-09","2013-08-24",1,16
"439","CDISCPILOT01","EX","01-713-1179",2,"PLACEBO",0,"mg","PATCH","QD","TRANSDERMAL",4,"WEEK 2",14,"2013-08-25","2014-01-24",17,169
"440","CDISCPILOT01","EX","01-713-1179",3,"PLACEBO",0,"mg","PATCH","QD","TRANSDERMAL",12,"WEEK 24",168,"2014-01-25","2014-02-05",170,181
"441","CDISCPILOT01","EX","01-713-1209",1,"XANOMELINE",54,"mg","PATCH","QD","TRANSDERMAL",3,"BASELINE",1,"2013-05-27","2013-06-14",1,19
"442","CDISCPILOT01","EX","01-713-1209",2,"XANOMELINE",81,"mg","PATCH","QD","TRANSDERMAL",4,"WEEK 2",14,"2013-06-15","2013-11-14",20,172
"443","CDISCPILOT01","EX","01-713-1209",3,"XANOMELINE",54,"mg","PATCH","QD","TRANSDERMAL",12,"WEEK 24",168,"2013-11-15","2013-11-22",173,180
"444","CDISCPILOT01","EX","01-713-1256",1,"PLACEBO",0,"mg","PATCH","QD","TRANSDERMAL",3,"BASELINE",1,"2012-09-19","2012-10-03",1,15
"445","CDISCPILOT01","EX","01-713-1256",2,"PLACEBO",0,"mg","PATCH","QD","TRANSDERMAL",4,"WEEK 2",14,"2012-10-04","2013-03-09",16,172
"446","CDISCPILOT01","EX","01-713-1256",3,"PLACEBO",0,"mg","PATCH","QD","TRANSDERMAL",12,"WEEK 24",168,"2013-03-10","2013-03-25",173,188
"447","CDISCPILOT01","EX","01-713-1269",1,"PLACEBO",0,"mg","PATCH","QD","TRANSDERMAL",3,"BASELINE",1,"2014-01-27","2014-02-10",1,15
"448","CDISCPILOT01","EX","01-713-1269",2,"PLACEBO",0,"mg","PATCH","QD","TRANSDERMAL",4,"WEEK 2",14,"2014-02-11","2014-07-13",16,168
"449","CDISCPILOT01","EX","01-713-1269",3,"PLACEBO",0,"mg","PATCH","QD","TRANSDERMAL",12,"WEEK 24",168,"2014-07-14","2014-07-28",169,183
"450","CDISCPILOT01","EX","01-713-1448",1,"XANOMELINE",54,"mg","PATCH","QD","TRANSDERMAL",3,"BASELINE",1,"2014-01-19","2014-02-01",1,14
"451","CDISCPILOT01","EX","01-713-1448",2,"XANOMELINE",54,"mg","PATCH","QD","TRANSDERMAL",4,"WEEK 2",14,"2014-02-02","2014-05-16",15,118
"452","CDISCPILOT01","EX","01-714-1035",1,"PLACEBO",0,"mg","PATCH","QD","TRANSDERMAL",3,"BASELINE",1,"2014-04-17","2014-05-01",1,15
"453","CDISCPILOT01","EX","01-714-1035",2,"PLACEBO",0,"mg","PATCH","QD","TRANSDERMAL",4,"WEEK 2",14,"2014-05-02","2014-10-02",16,169
"454","CDISCPILOT01","EX","01-714-1035",3,"PLACEBO",0,"mg","PATCH","QD","TRANSDERMAL",12,"WEEK 24",168,"2014-10-03","2014-10-16",170,183
"455","CDISCPILOT01","EX","01-714-1068",1,"XANOMELINE",54,"mg","PATCH","QD","TRANSDERMAL",3,"BASELINE",1,"2013-08-08","2013-08-22",1,15
"456","CDISCPILOT01","EX","01-714-1068",2,"XANOMELINE",54,"mg","PATCH","QD","TRANSDERMAL",4,"WEEK 2",14,"2013-08-23","2013-10-08",16,62
"457","CDISCPILOT01","EX","01-714-1195",1,"XANOMELINE",54,"mg","PATCH","QD","TRANSDERMAL",3,"BASELINE",1,"2013-04-26","2013-05-09",1,14
"458","CDISCPILOT01","EX","01-714-1195",2,"XANOMELINE",54,"mg","PATCH","QD","TRANSDERMAL",4,"WEEK 2",14,"2013-05-10","2013-10-10",15,168
"459","CDISCPILOT01","EX","01-714-1195",3,"XANOMELINE",54,"mg","PATCH","QD","TRANSDERMAL",12,"WEEK 24",168,"2013-10-11","2013-10-23",169,181
"460","CDISCPILOT01","EX","01-714-1288",1,"XANOMELINE",54,"mg","PATCH","QD","TRANSDERMAL",3,"BASELINE",1,"2013-12-04","2013-12-17",1,14
"461","CDISCPILOT01","EX","01-714-1288",2,"XANOMELINE",81,"mg","PATCH","QD","TRANSDERMAL",4,"WEEK 2",14,"2013-12-18","2014-05-27",15,175
"462","CDISCPILOT01","EX","01-714-1288",3,"XANOMELINE",54,"mg","PATCH","QD","TRANSDERMAL",12,"WEEK 24",168,"2014-05-28","2014-06-17",176,196
"463","CDISCPILOT01","EX","01-714-1375",1,"PLACEBO",0,"mg","PATCH","QD","TRANSDERMAL",3,"BASELINE",1,"2013-02-26","2013-03-19",1,22
"464","CDISCPILOT01","EX","01-714-1375",2,"PLACEBO",0,"mg","PATCH","QD","TRANSDERMAL",4,"WEEK 2",14,"2013-03-20","2013-08-23",23,179
"465","CDISCPILOT01","EX","01-714-1375",3,"PLACEBO",0,"mg","PATCH","QD","TRANSDERMAL",12,"WEEK 24",168,"2013-08-24","2013-09-07",180,194
"466","CDISCPILOT01","EX","01-714-1425",1,"XANOMELINE",54,"mg","PATCH","QD","TRANSDERMAL",3,"BASELINE",1,"2013-08-15","2013-08-19",1,5
"467","CDISCPILOT01","EX","01-715-1085",1,"XANOMELINE",54,"mg","PATCH","QD","TRANSDERMAL",3,"BASELINE",1,"2013-02-16","2013-03-04",1,17
"468","CDISCPILOT01","EX","01-715-1085",2,"XANOMELINE",54,"mg","PATCH","QD","TRANSDERMAL",4,"WEEK 2",14,"2013-03-05","2013-08-04",18,170
"469","CDISCPILOT01","EX","01-715-1085",3,"XANOMELINE",54,"mg","PATCH","QD","TRANSDERMAL",12,"WEEK 24",168,"2013-08-05","2013-08-18",171,184
"470","CDISCPILOT01","EX","01-715-1107",1,"XANOMELINE",54,"mg","PATCH","QD","TRANSDERMAL",3,"BASELINE",1,"2013-02-26","2013-03-12",1,15
"471","CDISCPILOT01","EX","01-715-1107",2,"XANOMELINE",54,"mg","PATCH","QD","TRANSDERMAL",4,"WEEK 2",14,"2013-03-13","2013-05-07",16,71
"472","CDISCPILOT01","EX","01-715-1155",1,"PLACEBO",0,"mg","PATCH","QD","TRANSDERMAL",3,"BASELINE",1,"2013-12-13","2013-12-27",1,15
"473","CDISCPILOT01","EX","01-715-1155",2,"PLACEBO",0,"mg","PATCH","QD","TRANSDERMAL",4,"WEEK 2",14,"2013-12-28","2014-01-25",16,44
"474","CDISCPILOT01","EX","01-715-1207",1,"PLACEBO",0,"mg","PATCH","QD","TRANSDERMAL",3,"BASELINE",1,"2012-11-18","2012-12-02",1,15
"475","CDISCPILOT01","EX","01-715-1207",2,"PLACEBO",0,"mg","PATCH","QD","TRANSDERMAL",4,"WEEK 2",14,"2012-12-03","2013-05-05",16,169
"476","CDISCPILOT01","EX","01-715-1207",3,"PLACEBO",0,"mg","PATCH","QD","TRANSDERMAL",12,"WEEK 24",168,"2013-05-06","2013-05-27",170,191
"477","CDISCPILOT01","EX","01-715-1319",1,"XANOMELINE",54,"mg","PATCH","QD","TRANSDERMAL",3,"BASELINE",1,"2013-02-17","2013-03-03",1,15
"478","CDISCPILOT01","EX","01-715-1319",2,"XANOMELINE",81,"mg","PATCH","QD","TRANSDERMAL",4,"WEEK 2",14,"2013-03-04","2013-03-05",16,17
"479","CDISCPILOT01","EX","01-715-1321",1,"XANOMELINE",54,"mg","PATCH","QD","TRANSDERMAL",3,"BASELINE",1,"2014-02-11","2014-02-26",1,16
"480","CDISCPILOT01","EX","01-715-1321",2,"XANOMELINE",81,"mg","PATCH","QD","TRANSDERMAL",4,"WEEK 2",14,"2014-02-27","2014-04-21",17,70
"481","CDISCPILOT01","EX","01-715-1397",1,"PLACEBO",0,"mg","PATCH","QD","TRANSDERMAL",3,"BASELINE",1,"2013-04-03","2013-04-18",1,16
"482","CDISCPILOT01","EX","01-715-1397",2,"PLACEBO",0,"mg","PATCH","QD","TRANSDERMAL",4,"WEEK 2",14,"2013-04-19","2013-09-18",17,169
"483","CDISCPILOT01","EX","01-715-1397",3,"PLACEBO",0,"mg","PATCH","QD","TRANSDERMAL",12,"WEEK 24",168,"2013-09-19","2013-10-02",170,183
"484","CDISCPILOT01","EX","01-715-1405",1,"XANOMELINE",54,"mg","PATCH","QD","TRANSDERMAL",3,"BASELINE",1,"2013-07-06","2013-07-07",1,2
"485","CDISCPILOT01","EX","01-716-1024",1,"PLACEBO",0,"mg","PATCH","QD","TRANSDERMAL",3,"BASELINE",1,"2012-07-09","2012-07-23",1,15
"486","CDISCPILOT01","EX","01-716-1024",2,"PLACEBO",0,"mg","PATCH","QD","TRANSDERMAL",4,"WEEK 2",14,"2012-07-24","2012-12-30",16,175
"487","CDISCPILOT01","EX","01-716-1024",3,"PLACEBO",0,"mg","PATCH","QD","TRANSDERMAL",12,"WEEK 24",168,"2012-12-31","2013-01-20",176,196
"488","CDISCPILOT01","EX","01-716-1026",1,"PLACEBO",0,"mg","PATCH","QD","TRANSDERMAL",3,"BASELINE",1,"2014-04-02","2014-04-18",1,17
"489","CDISCPILOT01","EX","01-716-1026",2,"PLACEBO",0,"mg","PATCH","QD","TRANSDERMAL",4,"WEEK 2",14,"2014-04-19","2014-09-27",18,179
"490","CDISCPILOT01","EX","01-716-1026",3,"PLACEBO",0,"mg","PATCH","QD","TRANSDERMAL",12,"WEEK 24",168,"2014-09-28","2014-10-16",180,198
"491","CDISCPILOT01","EX","01-716-1030",1,"XANOMELINE",54,"mg","PATCH","QD","TRANSDERMAL",3,"BASELINE",1,"2013-12-28","2014-01-02",1,6
"492","CDISCPILOT01","EX","01-716-1044",1,"PLACEBO",0,"mg","PATCH","QD","TRANSDERMAL",3,"BASELINE",1,"2013-04-27","2013-05-10",1,14
"493","CDISCPILOT01","EX","01-716-1044",2,"PLACEBO",0,"mg","PATCH","QD","TRANSDERMAL",4,"WEEK 2",14,"2013-05-11","2013-10-16",15,173
"494","CDISCPILOT01","EX","01-716-1044",3,"PLACEBO",0,"mg","PATCH","QD","TRANSDERMAL",12,"WEEK 24",168,"2013-10-17","2013-11-03",174,191
"495","CDISCPILOT01","EX","01-716-1063",1,"XANOMELINE",54,"mg","PATCH","QD","TRANSDERMAL",3,"BASELINE",1,"2013-05-09","2013-05-23",1,15
"496","CDISCPILOT01","EX","01-716-1063",2,"XANOMELINE",54,"mg","PATCH","QD","TRANSDERMAL",4,"WEEK 2",14,"2013-05-24","2013-08-25",16,109
"497","CDISCPILOT01","EX","01-716-1071",1,"XANOMELINE",54,"mg","PATCH","QD","TRANSDERMAL",3,"BASELINE",1,"2013-06-08","2013-06-22",1,15
"498","CDISCPILOT01","EX","01-716-1071",2,"XANOMELINE",81,"mg","PATCH","QD","TRANSDERMAL",4,"WEEK 2",14,"2013-06-23","2013-08-01",16,55
"499","CDISCPILOT01","EX","01-716-1094",1,"XANOMELINE",54,"mg","PATCH","QD","TRANSDERMAL",3,"BASELINE",1,"2012-12-19","2013-01-06",1,19
"500","CDISCPILOT01","EX","01-716-1094",2,"XANOMELINE",54,"mg","PATCH","QD","TRANSDERMAL",4,"WEEK 2",14,"2013-01-07","2013-01-24",20,37
"501","CDISCPILOT01","EX","01-716-1103",1,"XANOMELINE",54,"mg","PATCH","QD","TRANSDERMAL",3,"BASELINE",1,"2014-03-20","2014-04-05",1,17
"502","CDISCPILOT01","EX","01-716-1103",2,"XANOMELINE",54,"mg","PATCH","QD","TRANSDERMAL",4,"WEEK 2",14,"2014-04-06","2014-08-30",18,164
"503","CDISCPILOT01","EX","01-716-1103",3,"XANOMELINE",54,"mg","PATCH","QD","TRANSDERMAL",12,"WEEK 24",168,"2014-08-31","2014-09-20",165,185
"504","CDISCPILOT01","EX","01-716-1108",1,"PLACEBO",0,"mg","PATCH","QD","TRANSDERMAL",3,"BASELINE",1,"2013-02-12","2013-02-26",1,15
"505","CDISCPILOT01","EX","01-716-1108",2,"PLACEBO",0,"mg","PATCH","QD","TRANSDERMAL",4,"WEEK 2",14,"2013-02-27","2013-08-02",16,172
"506","CDISCPILOT01","EX","01-716-1108",3,"PLACEBO",0,"mg","PATCH","QD","TRANSDERMAL",12,"WEEK 24",168,"2013-08-03","2013-08-10",173,180
"507","CDISCPILOT01","EX","01-716-1151",1,"XANOMELINE",54,"mg","PATCH","QD","TRANSDERMAL",3,"BASELINE",1,"2013-02-01","2013-02-15",1,15
"508","CDISCPILOT01","EX","01-716-1151",2,"XANOMELINE",54,"mg","PATCH","QD","TRANSDERMAL",4,"WEEK 2",14,"2013-02-16","2013-05-11",16,100
"509","CDISCPILOT01","EX","01-716-1157",1,"XANOMELINE",54,"mg","PATCH","QD","TRANSDERMAL",3,"BASELINE",1,"2013-10-02","2013-10-16",1,15
"510","CDISCPILOT01","EX","01-716-1157",2,"XANOMELINE",54,"mg","PATCH","QD","TRANSDERMAL",4,"WEEK 2",14,"2013-10-17","2014-03-26",16,176
"511","CDISCPILOT01","EX","01-716-1157",3,"XANOMELINE",54,"mg","PATCH","QD","TRANSDERMAL",12,"WEEK 24",168,"2014-03-27","2014-04-04",177,185
"512","CDISCPILOT01","EX","01-716-1160",1,"PLACEBO",0,"mg","PATCH","QD","TRANSDERMAL",3,"BASELINE",1,"2013-04-05","2013-04-19",1,15
"513","CDISCPILOT01","EX","01-716-1160",2,"PLACEBO",0,"mg","PATCH","QD","TRANSDERMAL",4,"WEEK 2",14,"2013-04-20","2013-09-27",16,176
"514","CDISCPILOT01","EX","01-716-1160",3,"PLACEBO",0,"mg","PATCH","QD","TRANSDERMAL",12,"WEEK 24",168,"2013-09-28","2013-10-11",177,190
"515","CDISCPILOT01","EX","01-716-1167",1,"XANOMELINE",54,"mg","PATCH","QD","TRANSDERMAL",3,"BASELINE",1,"2012-10-08","2012-10-29",1,22
"516","CDISCPILOT01","EX","01-716-1167",2,"XANOMELINE",54,"mg","PATCH","QD","TRANSDERMAL",4,"WEEK 2",14,"2012-10-30","2013-03-24",23,168
"517","CDISCPILOT01","EX","01-716-1167",3,"XANOMELINE",54,"mg","PATCH","QD","TRANSDERMAL",12,"WEEK 24",168,"2013-03-25","2013-04-12",169,187
"518","CDISCPILOT01","EX","01-716-1177",1,"PLACEBO",0,"mg","PATCH","QD","TRANSDERMAL",3,"BASELINE",1,"2014-09-02","2014-09-16",1,15
"519","CDISCPILOT01","EX","01-716-1177",2,"PLACEBO",0,"mg","PATCH","QD","TRANSDERMAL",4,"WEEK 2",14,"2014-09-17","2015-02-17",16,169
"520","CDISCPILOT01","EX","01-716-1177",3,"PLACEBO",0,"mg","PATCH","QD","TRANSDERMAL",12,"WEEK 24",168,"2015-02-18","2015-03-05",170,185
"521","CDISCPILOT01","EX","01-716-1189",1,"XANOMELINE",54,"mg","PATCH","QD","TRANSDERMAL",3,"BASELINE",1,"2012-10-09","2012-10-24",1,16
"522","CDISCPILOT01","EX","01-716-1189",2,"XANOMELINE",81,"mg","PATCH","QD","TRANSDERMAL",4,"WEEK 2",14,"2012-10-25","2013-02-27",17,142
"523","CDISCPILOT01","EX","01-716-1229",1,"XANOMELINE",54,"mg","PATCH","QD","TRANSDERMAL",3,"BASELINE",1,"2013-02-20","2013-03-06",1,15
"524","CDISCPILOT01","EX","01-716-1229",2,"XANOMELINE",81,"mg","PATCH","QD","TRANSDERMAL",4,"WEEK 2",14,"2013-03-07","2013-03-31",16,40
"525","CDISCPILOT01","EX","01-716-1298",1,"XANOMELINE",54,"mg","PATCH","QD","TRANSDERMAL",3,"BASELINE",1,"2013-04-08","2013-04-22",1,15
"526","CDISCPILOT01","EX","01-716-1298",2,"XANOMELINE",54,"mg","PATCH","QD","TRANSDERMAL",4,"WEEK 2",14,"2013-04-23","2013-06-28",16,82
"527","CDISCPILOT01","EX","01-716-1308",1,"PLACEBO",0,"mg","PATCH","QD","TRANSDERMAL",3,"BASELINE",1,"2013-08-28","2013-09-12",1,16
"528","CDISCPILOT01","EX","01-716-1308",2,"PLACEBO",0,"mg","PATCH","QD","TRANSDERMAL",4,"WEEK 2",14,"2013-09-13","2013-10-07",17,41
"529","CDISCPILOT01","EX","01-716-1311",1,"XANOMELINE",54,"mg","PATCH","QD","TRANSDERMAL",3,"BASELINE",1,"2014-05-14","2014-05-28",1,15
"530","CDISCPILOT01","EX","01-716-1311",2,"XANOMELINE",54,"mg","PATCH","QD","TRANSDERMAL",4,"WEEK 2",14,"2014-05-29","2014-09-21",16,131
"531","CDISCPILOT01","EX","01-716-1364",1,"XANOMELINE",54,"mg","PATCH","QD","TRANSDERMAL",3,"BASELINE",1,"2013-07-04","2013-07-17",1,14
"532","CDISCPILOT01","EX","01-716-1364",2,"XANOMELINE",81,"mg","PATCH","QD","TRANSDERMAL",4,"WEEK 2",14,"2013-07-18","2013-12-23",15,173
"533","CDISCPILOT01","EX","01-716-1364",3,"XANOMELINE",54,"mg","PATCH","QD","TRANSDERMAL",12,"WEEK 24",168,"2013-12-24","2014-01-09",174,190
"534","CDISCPILOT01","EX","01-716-1373",1,"XANOMELINE",54,"mg","PATCH","QD","TRANSDERMAL",3,"BASELINE",1,"2012-12-14","2012-12-30",1,17
"535","CDISCPILOT01","EX","01-716-1373",2,"XANOMELINE",81,"mg","PATCH","QD","TRANSDERMAL",4,"WEEK 2",14,"2012-12-31","2013-02-27",18,76
"536","CDISCPILOT01","EX","01-716-1418",1,"XANOMELINE",54,"mg","PATCH","QD","TRANSDERMAL",3,"BASELINE",1,"2013-05-05","2013-05-19",1,15
"537","CDISCPILOT01","EX","01-716-1418",2,"XANOMELINE",81,"mg","PATCH","QD","TRANSDERMAL",4,"WEEK 2",14,"2013-05-20","2013-11-06",16,186
"538","CDISCPILOT01","EX","01-716-1418",3,"XANOMELINE",54,"mg","PATCH","QD","TRANSDERMAL",12,"WEEK 24",168,"2013-11-07","2013-11-20",187,200
"539","CDISCPILOT01","EX","01-716-1441",1,"PLACEBO",0,"mg","PATCH","QD","TRANSDERMAL",3,"BASELINE",1,"2014-01-22","2014-02-06",1,16
"540","CDISCPILOT01","EX","01-716-1441",2,"PLACEBO",0,"mg","PATCH","QD","TRANSDERMAL",4,"WEEK 2",14,"2014-02-07","2014-07-08",17,168
"541","CDISCPILOT01","EX","01-716-1441",3,"PLACEBO",0,"mg","PATCH","QD","TRANSDERMAL",12,"WEEK 24",168,"2014-07-09","2014-07-22",169,182
"542","CDISCPILOT01","EX","01-716-1447",1,"XANOMELINE",54,"mg","PATCH","QD","TRANSDERMAL",3,"BASELINE",1,"2013-12-16","2013-12-31",1,16
"543","CDISCPILOT01","EX","01-716-1447",2,"XANOMELINE",81,"mg","PATCH","QD","TRANSDERMAL",4,"WEEK 2",14,"2014-01-01","2014-06-07",17,174
"544","CDISCPILOT01","EX","01-716-1447",3,"XANOMELINE",54,"mg","PATCH","QD","TRANSDERMAL",12,"WEEK 24",168,"2014-06-08","2014-06-17",175,184
"545","CDISCPILOT01","EX","01-717-1004",1,"XANOMELINE",54,"mg","PATCH","QD","TRANSDERMAL",3,"BASELINE",1,"2014-01-14","2014-01-28",1,15
"546","CDISCPILOT01","EX","01-717-1004",2,"XANOMELINE",54,"mg","PATCH","QD","TRANSDERMAL",4,"WEEK 2",14,"2014-01-29","2014-07-01",16,169
"547","CDISCPILOT01","EX","01-717-1004",3,"XANOMELINE",54,"mg","PATCH","QD","TRANSDERMAL",12,"WEEK 24",168,"2014-07-02","2014-07-16",170,184
"548","CDISCPILOT01","EX","01-717-1109",1,"XANOMELINE",54,"mg","PATCH","QD","TRANSDERMAL",3,"BASELINE",1,"2014-01-27","2014-02-10",1,15
"549","CDISCPILOT01","EX","01-717-1109",2,"XANOMELINE",81,"mg","PATCH","QD","TRANSDERMAL",4,"WEEK 2",14,"2014-02-11","2014-07-18",16,173
"550","CDISCPILOT01","EX","01-717-1109",3,"XANOMELINE",54,"mg","PATCH","QD","TRANSDERMAL",12,"WEEK 24",168,"2014-07-19","2014-07-28",174,183
"551","CDISCPILOT01","EX","01-717-1174",1,"XANOMELINE",54,"mg","PATCH","QD","TRANSDERMAL",3,"BASELINE",1,"2013-01-22","2013-02-04",1,14
"552","CDISCPILOT01","EX","01-717-1174",2,"XANOMELINE",81,"mg","PATCH","QD","TRANSDERMAL",4,"WEEK 2",14,"2013-02-05","2013-07-07",15,167
"553","CDISCPILOT01","EX","01-717-1174",3,"XANOMELINE",54,"mg","PATCH","QD","TRANSDERMAL",12,"WEEK 24",168,"2013-07-08","2013-07-24",168,184
"554","CDISCPILOT01","EX","01-717-1201",1,"PLACEBO",0,"mg","PATCH","QD","TRANSDERMAL",3,"BASELINE",1,"2013-12-19","2014-01-03",1,16
"555","CDISCPILOT01","EX","01-717-1201",2,"PLACEBO",0,"mg","PATCH","QD","TRANSDERMAL",4,"WEEK 2",14,"2014-01-04","2014-02-21",17,65
"556","CDISCPILOT01","EX","01-717-1344",1,"PLACEBO",0,"mg","PATCH","QD","TRANSDERMAL",3,"BASELINE",1,"2014-01-11","2014-01-24",1,14
"557","CDISCPILOT01","EX","01-717-1344",2,"PLACEBO",0,"mg","PATCH","QD","TRANSDERMAL",4,"WEEK 2",14,"2014-01-25","2014-03-14",15,63
"558","CDISCPILOT01","EX","01-717-1357",1,"XANOMELINE",54,"mg","PATCH","QD","TRANSDERMAL",3,"BASELINE",1,"2013-05-01","2013-05-15",1,15
"559","CDISCPILOT01","EX","01-717-1357",2,"XANOMELINE",81,"mg","PATCH","QD","TRANSDERMAL",4,"WEEK 2",14,"2013-05-16","2013-10-14",16,167
"560","CDISCPILOT01","EX","01-717-1446",1,"XANOMELINE",54,"mg","PATCH","QD","TRANSDERMAL",3,"BASELINE",1,"2013-09-01","2013-09-16",1,16
"561","CDISCPILOT01","EX","01-717-1446",2,"XANOMELINE",54,"mg","PATCH","QD","TRANSDERMAL",4,"WEEK 2",14,"2013-09-17","2014-02-16",17,169
"562","CDISCPILOT01","EX","01-717-1446",3,"XANOMELINE",54,"mg","PATCH","QD","TRANSDERMAL",12,"WEEK 24",168,"2014-02-17","2014-03-03",170,184
"563","CDISCPILOT01","EX","01-718-1066",1,"XANOMELINE",54,"mg","PATCH","QD","TRANSDERMAL",3,"BASELINE",1,"2013-07-07","2013-07-16",1,10
"564","CDISCPILOT01","EX","01-718-1079",1,"XANOMELINE",54,"mg","PATCH","QD","TRANSDERMAL",3,"BASELINE",1,"2012-09-19","2012-10-03",1,15
"565","CDISCPILOT01","EX","01-718-1079",2,"XANOMELINE",54,"mg","PATCH","QD","TRANSDERMAL",4,"WEEK 2",14,"2012-10-04","2012-10-31",16,43
"566","CDISCPILOT01","EX","01-718-1101",1,"XANOMELINE",54,"mg","PATCH","QD","TRANSDERMAL",3,"BASELINE",1,"2013-02-17","2013-03-03",1,15
"567","CDISCPILOT01","EX","01-718-1101",2,"XANOMELINE",81,"mg","PATCH","QD","TRANSDERMAL",4,"WEEK 2",14,"2013-03-04","2013-07-31",16,165
"568","CDISCPILOT01","EX","01-718-1139",1,"PLACEBO",0,"mg","PATCH","QD","TRANSDERMAL",3,"BASELINE",1,"2013-05-19","2013-06-02",1,15
"569","CDISCPILOT01","EX","01-718-1139",2,"PLACEBO",0,"mg","PATCH","QD","TRANSDERMAL",4,"WEEK 2",14,"2013-06-03","2013-11-03",16,169
"570","CDISCPILOT01","EX","01-718-1139",3,"PLACEBO",0,"mg","PATCH","QD","TRANSDERMAL",12,"WEEK 24",168,"2013-11-04","2013-11-17",170,183
"571","CDISCPILOT01","EX","01-718-1150",1,"PLACEBO",0,"mg","PATCH","QD","TRANSDERMAL",3,"BASELINE",1,"2013-01-19","2013-02-02",1,15
"572","CDISCPILOT01","EX","01-718-1150",2,"PLACEBO",0,"mg","PATCH","QD","TRANSDERMAL",4,"WEEK 2",14,"2013-02-03","2013-07-07",16,170
"573","CDISCPILOT01","EX","01-718-1150",3,"PLACEBO",0,"mg","PATCH","QD","TRANSDERMAL",12,"WEEK 24",168,"2013-07-08","2013-07-29",171,192
"574","CDISCPILOT01","EX","01-718-1170",1,"XANOMELINE",54,"mg","PATCH","QD","TRANSDERMAL",3,"BASELINE",1,"2013-09-16","2013-09-29",1,14
"575","CDISCPILOT01","EX","01-718-1170",2,"XANOMELINE",54,"mg","PATCH","QD","TRANSDERMAL",4,"WEEK 2",14,"2013-09-30","2013-10-12",15,27
"576","CDISCPILOT01","EX","01-718-1172",1,"PLACEBO",0,"mg","PATCH","QD","TRANSDERMAL",3,"BASELINE",1,"2013-09-21","2013-10-05",1,15
"577","CDISCPILOT01","EX","01-718-1172",2,"PLACEBO",0,"mg","PATCH","QD","TRANSDERMAL",4,"WEEK 2",14,"2013-10-06","2013-11-29",16,70
"578","CDISCPILOT01","EX","01-718-1250",1,"XANOMELINE",54,"mg","PATCH","QD","TRANSDERMAL",3,"BASELINE",1,"2013-09-21","2013-10-03",1,13
"579","CDISCPILOT01","EX","01-718-1250",2,"XANOMELINE",54,"mg","PATCH","QD","TRANSDERMAL",4,"WEEK 2",14,"2013-10-04","2014-01-31",14,133
"580","CDISCPILOT01","EX","01-718-1254",1,"XANOMELINE",54,"mg","PATCH","QD","TRANSDERMAL",3,"BASELINE",1,"2013-07-10","2013-07-25",1,16
"581","CDISCPILOT01","EX","01-718-1254",2,"XANOMELINE",54,"mg","PATCH","QD","TRANSDERMAL",4,"WEEK 2",14,"2013-07-26","2013-12-26",17,170
"582","CDISCPILOT01","EX","01-718-1254",3,"XANOMELINE",54,"mg","PATCH","QD","TRANSDERMAL",12,"WEEK 24",168,"2013-12-27","2014-01-09",171,184
"583","CDISCPILOT01","EX","01-718-1328",1,"XANOMELINE",54,"mg","PATCH","QD","TRANSDERMAL",3,"BASELINE",1,"2013-02-01","2013-02-14",1,14
"584","CDISCPILOT01","EX","01-718-1328",2,"XANOMELINE",81,"mg","PATCH","QD","TRANSDERMAL",4,"WEEK 2",14,"2013-02-15","2013-04-18",15,77
"585","CDISCPILOT01","EX","01-718-1355",1,"PLACEBO",0,"mg","PATCH","QD","TRANSDERMAL",3,"BASELINE",1,"2013-02-28","2013-03-16",1,17
"586","CDISCPILOT01","EX","01-718-1355",2,"PLACEBO",0,"mg","PATCH","QD","TRANSDERMAL",4,"WEEK 2",14,"2013-03-17","2013-08-15",18,169
"587","CDISCPILOT01","EX","01-718-1355",3,"PLACEBO",0,"mg","PATCH","QD","TRANSDERMAL",12,"WEEK 24",168,"2013-08-16","2013-08-29",170,183
"588","CDISCPILOT01","EX","01-718-1371",1,"XANOMELINE",54,"mg","PATCH","QD","TRANSDERMAL",3,"BASELINE",1,"2013-04-26","2013-05-08",1,13
"589","CDISCPILOT01","EX","01-718-1371",2,"XANOMELINE",81,"mg","PATCH","QD","TRANSDERMAL",4,"WEEK 2",14,"2013-05-09","2013-08-01",14,98
"590","CDISCPILOT01","EX","01-718-1427",1,"XANOMELINE",54,"mg","PATCH","QD","TRANSDERMAL",3,"BASELINE",1,"2012-12-17","2012-12-31",1,15
"591","CDISCPILOT01","EX","01-718-1427",2,"XANOMELINE",81,"mg","PATCH","QD","TRANSDERMAL",4,"WEEK 2",14,"2013-01-01","2013-02-11",16,57
