"","STUDYID","DOMAIN","USUBJID","SCSEQ","SCTESTCD","SCTEST","SCCAT","SCORRES","SCORRESU","SCSTRESC","SCSTRESN","SCSTRESU","SCDTC","SCDY"
"1","CDISCPILOT01","SC","01-701-1015",1,"EDLEVEL","EDUCATION LEVEL","EDUCATION","16","YEARS","16",16,"YEARS","2013-12-26",-7
"2","CDISCPILOT01","SC","01-701-1023",1,"EDLEVEL","EDUCATION LEVEL","EDUCATION","14","YEARS","14",14,"YEARS","2012-07-22",-14
"3","CDISCPILOT01","SC","01-701-1028",1,"EDLEVEL","EDUCATION LEVEL","EDUCATION","16","YEARS","16",16,"YEARS","2013-07-11",-8
"4","CDISCPILOT01","SC","01-701-1033",1,"EDLEVEL","EDUCATION LEVEL","EDUCATION","12","YEARS","12",12,"YEARS","2014-03-10",-8
"5","CDISCPILOT01","SC","01-701-1034",1,"EDLEVEL","EDUCATION LEVEL","EDUCATION","9","YEARS","9",9,"YEARS","2014-06-24",-7
"6","CDISCPILOT01","SC","01-701-1047",1,"EDLEVEL","EDUCATION LEVEL","EDUCATION","8","YEARS","8",8,"YEARS","2013-01-22",-21
"7","CDISCPILOT01","SC","01-701-1097",1,"EDLEVEL","EDUCATION LEVEL","EDUCATION","18","YEARS","18",18,"YEARS","2013-12-23",-9
"8","CDISCPILOT01","SC","01-701-1111",1,"EDLEVEL","EDUCATION LEVEL","EDUCATION","22","YEARS","22",22,"YEARS","2012-08-25",-13
"9","CDISCPILOT01","SC","01-701-1115",1,"EDLEVEL","EDUCATION LEVEL","EDUCATION","12","YEARS","12",12,"YEARS","2012-11-23",-7
"10","CDISCPILOT01","SC","01-701-1118",1,"EDLEVEL","EDUCATION LEVEL","EDUCATION","14","YEARS","14",14,"YEARS","2014-02-27",-13
"11","CDISCPILOT01","SC","01-701-1130",1,"EDLEVEL","EDUCATION LEVEL","EDUCATION","12","YEARS","12",12,"YEARS","2014-02-09",-6
"12","CDISCPILOT01","SC","01-701-1133",1,"EDLEVEL","EDUCATION LEVEL","EDUCATION","10","YEARS","10",10,"YEARS","2012-10-23",-5
"13","CDISCPILOT01","SC","01-701-1146",1,"EDLEVEL","EDUCATION LEVEL","EDUCATION","16","YEARS","16",16,"YEARS","2013-05-07",-13
"14","CDISCPILOT01","SC","01-701-1148",1,"EDLEVEL","EDUCATION LEVEL","EDUCATION","15","YEARS","15",15,"YEARS","2013-08-14",-9
"15","CDISCPILOT01","SC","01-701-1153",1,"EDLEVEL","EDUCATION LEVEL","EDUCATION","6","YEARS","6",6,"YEARS","2013-09-06",-17
"16","CDISCPILOT01","SC","01-701-1180",1,"EDLEVEL","EDUCATION LEVEL","EDUCATION","16","YEARS","16",16,"YEARS","2013-01-28",-15
"17","CDISCPILOT01","SC","01-701-1181",1,"EDLEVEL","EDUCATION LEVEL","EDUCATION","15","YEARS","15",15,"YEARS","2013-11-26",-9
"18","CDISCPILOT01","SC","01-701-1188",1,"EDLEVEL","EDUCATION LEVEL","EDUCATION","16","YEARS","16",16,"YEARS","2013-02-03",-12
"19","CDISCPILOT01","SC","01-701-1192",1,"EDLEVEL","EDUCATION LEVEL","EDUCATION","12","YEARS","12",12,"YEARS","2012-07-08",-14
"20","CDISCPILOT01","SC","01-701-1203",1,"EDLEVEL","EDUCATION LEVEL","EDUCATION","13","YEARS","13",13,"YEARS","2013-01-25",-8
"21","CDISCPILOT01","SC","01-701-1211",1,"EDLEVEL","EDUCATION LEVEL","EDUCATION","12","YEARS","12",12,"YEARS","2012-10-30",-16
"22","CDISCPILOT01","SC","01-701-1234",1,"EDLEVEL","EDUCATION LEVEL","EDUCATION","18","YEARS","18",18,"YEARS","2013-03-20",-10
"23","CDISCPILOT01","SC","01-701-1239",1,"EDLEVEL","EDUCATION LEVEL","EDUCATION","11","YEARS","11",11,"YEARS","2013-12-28",-14
"24","CDISCPILOT01","SC","01-701-1275",1,"EDLEVEL","EDUCATION LEVEL","EDUCATION","12","YEARS","12",12,"YEARS","2014-01-25",-13
"25","CDISCPILOT01","SC","01-701-1287",1,"EDLEVEL","EDUCATION LEVEL","EDUCATION","14","YEARS","14",14,"YEARS","2014-01-17",-8
"26","CDISCPILOT01","SC","01-701-1294",1,"EDLEVEL","EDUCATION LEVEL","EDUCATION","16","YEARS","16",16,"YEARS","2013-03-17",-7
"27","CDISCPILOT01","SC","01-701-1302",1,"EDLEVEL","EDUCATION LEVEL","EDUCATION","15","YEARS","15",15,"YEARS","2013-08-20",-9
"28","CDISCPILOT01","SC","01-701-1317",1,"EDLEVEL","EDUCATION LEVEL","EDUCATION","20","YEARS","20",20,"YEARS","2014-05-10",-12
"29","CDISCPILOT01","SC","01-701-1324",1,"EDLEVEL","EDUCATION LEVEL","EDUCATION","18","YEARS","18",18,"YEARS","2012-09-16",-16
"30","CDISCPILOT01","SC","01-701-1341",1,"EDLEVEL","EDUCATION LEVEL","EDUCATION","24","YEARS","24",24,"YEARS","2012-12-22",-14
"31","CDISCPILOT01","SC","01-701-1345",1,"EDLEVEL","EDUCATION LEVEL","EDUCATION","15","YEARS","15",15,"YEARS","2013-10-01",-7
"32","CDISCPILOT01","SC","01-701-1360",1,"EDLEVEL","EDUCATION LEVEL","EDUCATION","10","YEARS","10",10,"YEARS","2013-07-24",-7
"33","CDISCPILOT01","SC","01-701-1363",1,"EDLEVEL","EDUCATION LEVEL","EDUCATION","13","YEARS","13",13,"YEARS","2013-05-20",-10
"34","CDISCPILOT01","SC","01-701-1383",1,"EDLEVEL","EDUCATION LEVEL","EDUCATION","12","YEARS","12",12,"YEARS","2013-01-22",-13
"35","CDISCPILOT01","SC","01-701-1387",1,"EDLEVEL","EDUCATION LEVEL","EDUCATION","12","YEARS","12",12,"YEARS","2014-02-23",-17
"36","CDISCPILOT01","SC","01-701-1392",1,"EDLEVEL","EDUCATION LEVEL","EDUCATION","16","YEARS","16",16,"YEARS","2012-10-17",-11
"37","CDISCPILOT01","SC","01-701-1415",1,"EDLEVEL","EDUCATION LEVEL","EDUCATION","10","YEARS","10",10,"YEARS","2013-09-15",-8
"38","CDISCPILOT01","SC","01-701-1429",1,"EDLEVEL","EDUCATION LEVEL","EDUCATION","12","YEARS","12",12,"YEARS","2013-02-25",-22
"39","CDISCPILOT01","SC","01-701-1440",1,"EDLEVEL","EDUCATION LEVEL","EDUCATION","18","YEARS","18",18,"YEARS","2013-07-24",-15
"40","CDISCPILOT01","SC","01-701-1442",1,"EDLEVEL","EDUCATION LEVEL","EDUCATION","12","YEARS","12",12,"YEARS","2013-10-17",-9
"41","CDISCPILOT01","SC","01-701-1444",1,"EDLEVEL","EDUCATION LEVEL","EDUCATION","14","YEARS","14",14,"YEARS","2012-12-31",-5
"42","CDISCPILOT01","SC","01-702-1082",1,"EDLEVEL","EDUCATION LEVEL","EDUCATION","18","YEARS","18",18,"YEARS","2013-07-03",-23
"43","CDISCPILOT01","SC","01-703-1042",1,"EDLEVEL","EDUCATION LEVEL","EDUCATION","12","YEARS","12",12,"YEARS","2013-02-23",-7
"44","CDISCPILOT01","SC","01-703-1076",1,"EDLEVEL","EDUCATION LEVEL","EDUCATION","10","YEARS","10",10,"YEARS","2013-10-17",-8
"45","CDISCPILOT01","SC","01-703-1086",1,"EDLEVEL","EDUCATION LEVEL","EDUCATION","17","YEARS","17",17,"YEARS","2012-08-22",-11
"46","CDISCPILOT01","SC","01-703-1096",1,"EDLEVEL","EDUCATION LEVEL","EDUCATION","6","YEARS","6",6,"YEARS","2012-12-19",-37
"47","CDISCPILOT01","SC","01-703-1100",1,"EDLEVEL","EDUCATION LEVEL","EDUCATION","8","YEARS","8",8,"YEARS","2013-02-28",-13
"48","CDISCPILOT01","SC","01-703-1119",1,"EDLEVEL","EDUCATION LEVEL","EDUCATION","16","YEARS","16",16,"YEARS","2013-02-02",-18
"49","CDISCPILOT01","SC","01-703-1175",1,"EDLEVEL","EDUCATION LEVEL","EDUCATION","16","YEARS","16",16,"YEARS","2013-12-13",-7
"50","CDISCPILOT01","SC","01-703-1182",1,"EDLEVEL","EDUCATION LEVEL","EDUCATION","12","YEARS","12",12,"YEARS","2013-10-08",-9
"51","CDISCPILOT01","SC","01-703-1197",1,"EDLEVEL","EDUCATION LEVEL","EDUCATION","5","YEARS","5",5,"YEARS","2013-06-01",-15
"52","CDISCPILOT01","SC","01-703-1210",1,"EDLEVEL","EDUCATION LEVEL","EDUCATION","12","YEARS","12",12,"YEARS","2013-03-08",-8
"53","CDISCPILOT01","SC","01-703-1258",1,"EDLEVEL","EDUCATION LEVEL","EDUCATION","12","YEARS","12",12,"YEARS","2012-07-10",-10
"54","CDISCPILOT01","SC","01-703-1279",1,"EDLEVEL","EDUCATION LEVEL","EDUCATION","12","YEARS","12",12,"YEARS","2013-04-27",-16
"55","CDISCPILOT01","SC","01-703-1295",1,"EDLEVEL","EDUCATION LEVEL","EDUCATION","8","YEARS","8",8,"YEARS","2013-10-24",-28
"56","CDISCPILOT01","SC","01-703-1299",1,"EDLEVEL","EDUCATION LEVEL","EDUCATION","12","YEARS","12",12,"YEARS","2012-09-07",-5
"57","CDISCPILOT01","SC","01-703-1335",1,"EDLEVEL","EDUCATION LEVEL","EDUCATION","11","YEARS","11",11,"YEARS","2014-02-28",-17
"58","CDISCPILOT01","SC","01-703-1379",1,"EDLEVEL","EDUCATION LEVEL","EDUCATION","7","YEARS","7",7,"YEARS","2013-09-12",-10
"59","CDISCPILOT01","SC","01-703-1403",1,"EDLEVEL","EDUCATION LEVEL","EDUCATION","12","YEARS","12",12,"YEARS","2012-12-05",-7
"60","CDISCPILOT01","SC","01-703-1439",1,"EDLEVEL","EDUCATION LEVEL","EDUCATION","12","YEARS","12",12,"YEARS","2014-03-04",-8
"61","CDISCPILOT01","SC","01-704-1008",1,"EDLEVEL","EDUCATION LEVEL","EDUCATION","12","YEARS","12",12,"YEARS","2013-01-06",-7
"62","CDISCPILOT01","SC","01-704-1009",1,"EDLEVEL","EDUCATION LEVEL","EDUCATION","16","YEARS","16",16,"YEARS","2013-08-20",-7
"63","CDISCPILOT01","SC","01-704-1010",1,"EDLEVEL","EDUCATION LEVEL","EDUCATION","14","YEARS","14",14,"YEARS","2014-02-08",-13
"64","CDISCPILOT01","SC","01-704-1017",1,"EDLEVEL","EDUCATION LEVEL","EDUCATION","12","YEARS","12",12,"YEARS","2013-09-20",-16
"65","CDISCPILOT01","SC","01-704-1025",1,"EDLEVEL","EDUCATION LEVEL","EDUCATION","18","YEARS","18",18,"YEARS","2013-09-18",-9
"66","CDISCPILOT01","SC","01-704-1065",1,"EDLEVEL","EDUCATION LEVEL","EDUCATION","12","YEARS","12",12,"YEARS","2013-10-17",-7
"67","CDISCPILOT01","SC","01-704-1074",1,"EDLEVEL","EDUCATION LEVEL","EDUCATION","16","YEARS","16",16,"YEARS","2014-01-19",-3
"68","CDISCPILOT01","SC","01-704-1093",1,"EDLEVEL","EDUCATION LEVEL","EDUCATION","12","YEARS","12",12,"YEARS","2013-02-22",-21
"69","CDISCPILOT01","SC","01-704-1114",1,"EDLEVEL","EDUCATION LEVEL","EDUCATION","8","YEARS","8",8,"YEARS","2013-01-09",-14
"70","CDISCPILOT01","SC","01-704-1120",1,"EDLEVEL","EDUCATION LEVEL","EDUCATION","13","YEARS","13",13,"YEARS","2013-11-18",-14
"71","CDISCPILOT01","SC","01-704-1127",1,"EDLEVEL","EDUCATION LEVEL","EDUCATION","12","YEARS","12",12,"YEARS","2013-09-16",-16
"72","CDISCPILOT01","SC","01-704-1135",1,"EDLEVEL","EDUCATION LEVEL","EDUCATION","14","YEARS","14",14,"YEARS","2013-10-23",-8
"73","CDISCPILOT01","SC","01-704-1164",1,"EDLEVEL","EDUCATION LEVEL","EDUCATION","10","YEARS","10",10,"YEARS","2012-09-11",-8
"74","CDISCPILOT01","SC","01-704-1218",1,"EDLEVEL","EDUCATION LEVEL","EDUCATION","12","YEARS","12",12,"YEARS","2012-11-11",-8
"75","CDISCPILOT01","SC","01-704-1233",1,"EDLEVEL","EDUCATION LEVEL","EDUCATION","16","YEARS","16",16,"YEARS","2013-03-08",-13
"76","CDISCPILOT01","SC","01-704-1241",1,"EDLEVEL","EDUCATION LEVEL","EDUCATION","14","YEARS","14",14,"YEARS","2013-08-14",-11
"77","CDISCPILOT01","SC","01-704-1260",1,"EDLEVEL","EDUCATION LEVEL","EDUCATION","16","YEARS","16",16,"YEARS","2012-08-23",-7
"78","CDISCPILOT01","SC","01-704-1266",1,"EDLEVEL","EDUCATION LEVEL","EDUCATION","12","YEARS","12",12,"YEARS","2013-10-05",-8
"79","CDISCPILOT01","SC","01-704-1323",1,"EDLEVEL","EDUCATION LEVEL","EDUCATION","16","YEARS","16",16,"YEARS","2013-06-13",-25
"80","CDISCPILOT01","SC","01-704-1325",1,"EDLEVEL","EDUCATION LEVEL","EDUCATION","16","YEARS","16",16,"YEARS","2014-04-16",-7
"81","CDISCPILOT01","SC","01-704-1332",1,"EDLEVEL","EDUCATION LEVEL","EDUCATION","9","YEARS","9",9,"YEARS","2013-11-24",-15
"82","CDISCPILOT01","SC","01-704-1351",1,"EDLEVEL","EDUCATION LEVEL","EDUCATION","12","YEARS","12",12,"YEARS","2013-09-26",-16
"83","CDISCPILOT01","SC","01-704-1388",1,"EDLEVEL","EDUCATION LEVEL","EDUCATION","11","YEARS","11",11,"YEARS","2012-11-28",-9
"84","CDISCPILOT01","SC","01-704-1435",1,"EDLEVEL","EDUCATION LEVEL","EDUCATION","16","YEARS","16",16,"YEARS","2012-11-01",-16
"85","CDISCPILOT01","SC","01-704-1445",1,"EDLEVEL","EDUCATION LEVEL","EDUCATION","12","YEARS","12",12,"YEARS","2014-05-01",-10
"86","CDISCPILOT01","SC","01-705-1018",1,"EDLEVEL","EDUCATION LEVEL","EDUCATION","6","YEARS","6",6,"YEARS","2013-06-30",-5
"87","CDISCPILOT01","SC","01-705-1031",1,"EDLEVEL","EDUCATION LEVEL","EDUCATION","16","YEARS","16",16,"YEARS","2013-11-17",-10
"88","CDISCPILOT01","SC","01-705-1059",1,"EDLEVEL","EDUCATION LEVEL","EDUCATION","12","YEARS","12",12,"YEARS","2013-08-02",-3
"89","CDISCPILOT01","SC","01-705-1186",1,"EDLEVEL","EDUCATION LEVEL","EDUCATION","12","YEARS","12",12,"YEARS","2014-01-03",-5
"90","CDISCPILOT01","SC","01-705-1199",1,"EDLEVEL","EDUCATION LEVEL","EDUCATION","20","YEARS","20",20,"YEARS","2013-09-11",-5
"91","CDISCPILOT01","SC","01-705-1280",1,"EDLEVEL","EDUCATION LEVEL","EDUCATION","12","YEARS","12",12,"YEARS","2014-01-11",-6
"92","CDISCPILOT01","SC","01-705-1281",1,"EDLEVEL","EDUCATION LEVEL","EDUCATION","12","YEARS","12",12,"YEARS","2013-11-26",-2
"93","CDISCPILOT01","SC","01-705-1282",1,"EDLEVEL","EDUCATION LEVEL","EDUCATION","12","YEARS","12",12,"YEARS","2012-12-23",-3
"94","CDISCPILOT01","SC","01-705-1292",1,"EDLEVEL","EDUCATION LEVEL","EDUCATION","8","YEARS","8",8,"YEARS","2013-10-11",-3
"95","CDISCPILOT01","SC","01-705-1303",1,"EDLEVEL","EDUCATION LEVEL","EDUCATION","12","YEARS","12",12,"YEARS","2013-12-10",-6
"96","CDISCPILOT01","SC","01-705-1310",1,"EDLEVEL","EDUCATION LEVEL","EDUCATION","12","YEARS","12",12,"YEARS","2013-10-26",-7
"97","CDISCPILOT01","SC","01-705-1349",1,"EDLEVEL","EDUCATION LEVEL","EDUCATION","10","YEARS","10",10,"YEARS","2013-02-24",-14
"98","CDISCPILOT01","SC","01-705-1377",1,"EDLEVEL","EDUCATION LEVEL","EDUCATION","6","YEARS","6",6,"YEARS","2013-12-29",-6
"99","CDISCPILOT01","SC","01-705-1382",1,"EDLEVEL","EDUCATION LEVEL","EDUCATION","12","YEARS","12",12,"YEARS","2013-05-09",-4
"100","CDISCPILOT01","SC","01-705-1393",1,"EDLEVEL","EDUCATION LEVEL","EDUCATION","13","YEARS","13",13,"YEARS","2012-09-02",-5
"101","CDISCPILOT01","SC","01-705-1431",1,"EDLEVEL","EDUCATION LEVEL","EDUCATION","12","YEARS","12",12,"YEARS","2013-06-16",-7
"102","CDISCPILOT01","SC","01-706-1041",1,"EDLEVEL","EDUCATION LEVEL","EDUCATION","15","YEARS","15",15,"YEARS","2013-12-21",-10
"103","CDISCPILOT01","SC","01-706-1049",1,"EDLEVEL","EDUCATION LEVEL","EDUCATION","11","YEARS","11",11,"YEARS","2013-04-30",-14
"104","CDISCPILOT01","SC","01-706-1384",1,"EDLEVEL","EDUCATION LEVEL","EDUCATION","8","YEARS","8",8,"YEARS","2012-08-25",-21
"105","CDISCPILOT01","SC","01-707-1037",1,"EDLEVEL","EDUCATION LEVEL","EDUCATION","14","YEARS","14",14,"YEARS","2013-12-12",-8
"106","CDISCPILOT01","SC","01-707-1206",1,"EDLEVEL","EDUCATION LEVEL","EDUCATION","7","YEARS","7",7,"YEARS","2013-10-20",-8
"107","CDISCPILOT01","SC","01-708-1019",1,"EDLEVEL","EDUCATION LEVEL","EDUCATION","18","YEARS","18",18,"YEARS","2013-12-10",-10
"108","CDISCPILOT01","SC","01-708-1032",1,"EDLEVEL","EDUCATION LEVEL","EDUCATION","12","YEARS","12",12,"YEARS","2013-02-02",-7
"109","CDISCPILOT01","SC","01-708-1084",1,"EDLEVEL","EDUCATION LEVEL","EDUCATION","12","YEARS","12",12,"YEARS","2013-05-01",-8
"110","CDISCPILOT01","SC","01-708-1087",1,"EDLEVEL","EDUCATION LEVEL","EDUCATION","12","YEARS","12",12,"YEARS","2012-10-06",-16
"111","CDISCPILOT01","SC","01-708-1158",1,"EDLEVEL","EDUCATION LEVEL","EDUCATION","8","YEARS","8",8,"YEARS","2014-02-01",-7
"112","CDISCPILOT01","SC","01-708-1171",1,"EDLEVEL","EDUCATION LEVEL","EDUCATION","09","YEARS","09",9,"YEARS","2012-11-25",-11
"113","CDISCPILOT01","SC","01-708-1178",1,"EDLEVEL","EDUCATION LEVEL","EDUCATION","08","YEARS","08",8,"YEARS","2013-12-13",-16
"114","CDISCPILOT01","SC","01-708-1213",1,"EDLEVEL","EDUCATION LEVEL","EDUCATION","12","YEARS","12",12,"YEARS","2013-02-01",-8
"115","CDISCPILOT01","SC","01-708-1216",1,"EDLEVEL","EDUCATION LEVEL","EDUCATION","12","YEARS","12",12,"YEARS","2012-10-14",-10
"116","CDISCPILOT01","SC","01-708-1236",1,"EDLEVEL","EDUCATION LEVEL","EDUCATION","08","YEARS","08",8,"YEARS","2013-09-08",-13
"117","CDISCPILOT01","SC","01-708-1253",1,"EDLEVEL","EDUCATION LEVEL","EDUCATION","12","YEARS","12",12,"YEARS","2013-04-26",-11
"118","CDISCPILOT01","SC","01-708-1272",1,"EDLEVEL","EDUCATION LEVEL","EDUCATION","11","YEARS","11",11,"YEARS","2013-01-22",-15
"119","CDISCPILOT01","SC","01-708-1286",1,"EDLEVEL","EDUCATION LEVEL","EDUCATION","12","YEARS","12",12,"YEARS","2013-08-25",-16
"120","CDISCPILOT01","SC","01-708-1296",1,"EDLEVEL","EDUCATION LEVEL","EDUCATION","18","YEARS","18",18,"YEARS","2013-06-07",-7
"121","CDISCPILOT01","SC","01-708-1297",1,"EDLEVEL","EDUCATION LEVEL","EDUCATION","13","YEARS","13",13,"YEARS","2013-01-15",-10
"122","CDISCPILOT01","SC","01-708-1316",1,"EDLEVEL","EDUCATION LEVEL","EDUCATION","12","YEARS","12",12,"YEARS","2013-08-15",-8
"123","CDISCPILOT01","SC","01-708-1336",1,"EDLEVEL","EDUCATION LEVEL","EDUCATION","18","YEARS","18",18,"YEARS","2012-11-21",-16
"124","CDISCPILOT01","SC","01-708-1342",1,"EDLEVEL","EDUCATION LEVEL","EDUCATION","13","YEARS","13",13,"YEARS","2012-12-21",-8
"125","CDISCPILOT01","SC","01-708-1347",1,"EDLEVEL","EDUCATION LEVEL","EDUCATION","12","YEARS","12",12,"YEARS","2013-04-11",-9
"126","CDISCPILOT01","SC","01-708-1348",1,"EDLEVEL","EDUCATION LEVEL","EDUCATION","12","YEARS","12",12,"YEARS","2013-07-28",-8
"127","CDISCPILOT01","SC","01-708-1353",1,"EDLEVEL","EDUCATION LEVEL","EDUCATION","16","YEARS","16",16,"YEARS","2013-06-17",-17
"128","CDISCPILOT01","SC","01-708-1372",1,"EDLEVEL","EDUCATION LEVEL","EDUCATION","8","YEARS","8",8,"YEARS","2013-04-03",-9
"129","CDISCPILOT01","SC","01-708-1378",1,"EDLEVEL","EDUCATION LEVEL","EDUCATION","13","YEARS","13",13,"YEARS","2013-08-24",-10
"130","CDISCPILOT01","SC","01-708-1406",1,"EDLEVEL","EDUCATION LEVEL","EDUCATION","13","YEARS","13",13,"YEARS","2013-12-06",-20
"131","CDISCPILOT01","SC","01-708-1428",1,"EDLEVEL","EDUCATION LEVEL","EDUCATION","8","YEARS","8",8,"YEARS","2013-11-02",-7
"132","CDISCPILOT01","SC","01-709-1001",1,"EDLEVEL","EDUCATION LEVEL","EDUCATION","12","YEARS","12",12,"YEARS","2013-09-20",-18
"133","CDISCPILOT01","SC","01-709-1007",1,"EDLEVEL","EDUCATION LEVEL","EDUCATION","21","YEARS","21",21,"YEARS","2012-07-21",-10
"134","CDISCPILOT01","SC","01-709-1020",1,"EDLEVEL","EDUCATION LEVEL","EDUCATION","12","YEARS","12",12,"YEARS","2012-11-22",-9
"135","CDISCPILOT01","SC","01-709-1029",1,"EDLEVEL","EDUCATION LEVEL","EDUCATION","20","YEARS","20",20,"YEARS","2012-12-10",-15
"136","CDISCPILOT01","SC","01-709-1081",1,"EDLEVEL","EDUCATION LEVEL","EDUCATION","9","YEARS","9",9,"YEARS","2014-01-09",-9
"137","CDISCPILOT01","SC","01-709-1088",1,"EDLEVEL","EDUCATION LEVEL","EDUCATION","16","YEARS","16",16,"YEARS","2014-03-30",-13
"138","CDISCPILOT01","SC","01-709-1099",1,"EDLEVEL","EDUCATION LEVEL","EDUCATION","12","YEARS","12",12,"YEARS","2013-10-14",-11
"139","CDISCPILOT01","SC","01-709-1102",1,"EDLEVEL","EDUCATION LEVEL","EDUCATION","14","YEARS","14",14,"YEARS","2013-01-07",-8
"140","CDISCPILOT01","SC","01-709-1168",1,"EDLEVEL","EDUCATION LEVEL","EDUCATION","12","YEARS","12",12,"YEARS","2013-07-25",-8
"141","CDISCPILOT01","SC","01-709-1217",1,"EDLEVEL","EDUCATION LEVEL","EDUCATION","6","YEARS","6",6,"YEARS","2013-02-16",-16
"142","CDISCPILOT01","SC","01-709-1238",1,"EDLEVEL","EDUCATION LEVEL","EDUCATION","8","YEARS","8",8,"YEARS","2013-05-02",-13
"143","CDISCPILOT01","SC","01-709-1259",1,"EDLEVEL","EDUCATION LEVEL","EDUCATION","18","YEARS","18",18,"YEARS","2013-01-13",-13
"144","CDISCPILOT01","SC","01-709-1285",1,"EDLEVEL","EDUCATION LEVEL","EDUCATION","6","YEARS","6",6,"YEARS","2013-03-17",-7
"145","CDISCPILOT01","SC","01-709-1301",1,"EDLEVEL","EDUCATION LEVEL","EDUCATION","10","YEARS","10",10,"YEARS","2013-07-14",-5
"146","CDISCPILOT01","SC","01-709-1306",1,"EDLEVEL","EDUCATION LEVEL","EDUCATION","12","YEARS","12",12,"YEARS","2014-01-19",-15
"147","CDISCPILOT01","SC","01-709-1309",1,"EDLEVEL","EDUCATION LEVEL","EDUCATION","16","YEARS","16",16,"YEARS","2013-06-09",-10
"148","CDISCPILOT01","SC","01-709-1312",1,"EDLEVEL","EDUCATION LEVEL","EDUCATION","13","YEARS","13",13,"YEARS","2014-04-13",-7
"149","CDISCPILOT01","SC","01-709-1326",1,"EDLEVEL","EDUCATION LEVEL","EDUCATION","16","YEARS","16",16,"YEARS","2013-03-21",-15
"150","CDISCPILOT01","SC","01-709-1329",1,"EDLEVEL","EDUCATION LEVEL","EDUCATION","16","YEARS","16",16,"YEARS","2013-08-01",-14
"151","CDISCPILOT01","SC","01-709-1339",1,"EDLEVEL","EDUCATION LEVEL","EDUCATION","16","YEARS","16",16,"YEARS","2012-12-15",-8
"152","CDISCPILOT01","SC","01-709-1424",1,"EDLEVEL","EDUCATION LEVEL","EDUCATION","16","YEARS","16",16,"YEARS","2013-02-15",-16
"153","CDISCPILOT01","SC","01-710-1002",1,"EDLEVEL","EDUCATION LEVEL","EDUCATION","12","YEARS","12",12,"YEARS","2013-12-30",-15
"154","CDISCPILOT01","SC","01-710-1006",1,"EDLEVEL","EDUCATION LEVEL","EDUCATION","12","YEARS","12",12,"YEARS","2013-01-27",-14
"155","CDISCPILOT01","SC","01-710-1021",1,"EDLEVEL","EDUCATION LEVEL","EDUCATION","8","YEARS","8",8,"YEARS","2013-09-19",-8
"156","CDISCPILOT01","SC","01-710-1027",1,"EDLEVEL","EDUCATION LEVEL","EDUCATION","12","YEARS","12",12,"YEARS","2014-02-03",-25
"157","CDISCPILOT01","SC","01-710-1045",1,"EDLEVEL","EDUCATION LEVEL","EDUCATION","12","YEARS","12",12,"YEARS","2013-05-20",-14
"158","CDISCPILOT01","SC","01-710-1053",1,"EDLEVEL","EDUCATION LEVEL","EDUCATION","12","YEARS","12",12,"YEARS","2012-12-15",-11
"159","CDISCPILOT01","SC","01-710-1060",1,"EDLEVEL","EDUCATION LEVEL","EDUCATION","16","YEARS","16",16,"YEARS","2012-12-24",-8
"160","CDISCPILOT01","SC","01-710-1070",1,"EDLEVEL","EDUCATION LEVEL","EDUCATION","10","YEARS","10",10,"YEARS","2012-08-28",-11
"161","CDISCPILOT01","SC","01-710-1077",1,"EDLEVEL","EDUCATION LEVEL","EDUCATION","12","YEARS","12",12,"YEARS","2013-11-03",-14
"162","CDISCPILOT01","SC","01-710-1078",1,"EDLEVEL","EDUCATION LEVEL","EDUCATION","12","YEARS","12",12,"YEARS","2013-09-06",-11
"163","CDISCPILOT01","SC","01-710-1083",1,"EDLEVEL","EDUCATION LEVEL","EDUCATION","14","YEARS","14",14,"YEARS","2013-07-09",-13
"164","CDISCPILOT01","SC","01-710-1137",1,"EDLEVEL","EDUCATION LEVEL","EDUCATION","16","YEARS","16",16,"YEARS","2013-10-03",-8
"165","CDISCPILOT01","SC","01-710-1142",1,"EDLEVEL","EDUCATION LEVEL","EDUCATION","12","YEARS","12",12,"YEARS","2012-09-12",-20
"166","CDISCPILOT01","SC","01-710-1154",1,"EDLEVEL","EDUCATION LEVEL","EDUCATION","3","YEARS","3",3,"YEARS","2014-03-08",-21
"167","CDISCPILOT01","SC","01-710-1166",1,"EDLEVEL","EDUCATION LEVEL","EDUCATION","12","YEARS","12",12,"YEARS","2012-11-10",-20
"168","CDISCPILOT01","SC","01-710-1183",1,"EDLEVEL","EDUCATION LEVEL","EDUCATION","8","YEARS","8",8,"YEARS","2013-10-24",-23
"169","CDISCPILOT01","SC","01-710-1187",1,"EDLEVEL","EDUCATION LEVEL","EDUCATION","8","YEARS","8",8,"YEARS","2012-10-26",-15
"170","CDISCPILOT01","SC","01-710-1235",1,"EDLEVEL","EDUCATION LEVEL","EDUCATION","16","YEARS","16",16,"YEARS","2012-09-13",-13
"171","CDISCPILOT01","SC","01-710-1249",1,"EDLEVEL","EDUCATION LEVEL","EDUCATION","12","YEARS","12",12,"YEARS","2013-12-19",-9
"172","CDISCPILOT01","SC","01-710-1264",1,"EDLEVEL","EDUCATION LEVEL","EDUCATION","12","YEARS","12",12,"YEARS","2013-06-02",-11
"173","CDISCPILOT01","SC","01-710-1270",1,"EDLEVEL","EDUCATION LEVEL","EDUCATION","12","YEARS","12",12,"YEARS","2014-02-01",-11
"174","CDISCPILOT01","SC","01-710-1271",1,"EDLEVEL","EDUCATION LEVEL","EDUCATION","16","YEARS","16",16,"YEARS","2012-09-04",-23
"175","CDISCPILOT01","SC","01-710-1278",1,"EDLEVEL","EDUCATION LEVEL","EDUCATION","20","YEARS","20",20,"YEARS","2012-12-13",-11
"176","CDISCPILOT01","SC","01-710-1300",1,"EDLEVEL","EDUCATION LEVEL","EDUCATION","12","YEARS","12",12,"YEARS","2012-12-04",-11
"177","CDISCPILOT01","SC","01-710-1314",1,"EDLEVEL","EDUCATION LEVEL","EDUCATION","12","YEARS","12",12,"YEARS","2013-04-21",-3
"178","CDISCPILOT01","SC","01-710-1315",1,"EDLEVEL","EDUCATION LEVEL","EDUCATION","12","YEARS","12",12,"YEARS","2013-02-12",-15
"179","CDISCPILOT01","SC","01-710-1354",1,"EDLEVEL","EDUCATION LEVEL","EDUCATION","16","YEARS","16",16,"YEARS","2012-10-29",-13
"180","CDISCPILOT01","SC","01-710-1358",1,"EDLEVEL","EDUCATION LEVEL","EDUCATION","6","YEARS","6",6,"YEARS","2012-09-02",-15
"181","CDISCPILOT01","SC","01-710-1368",1,"EDLEVEL","EDUCATION LEVEL","EDUCATION","12","YEARS","12",12,"YEARS","2013-10-21",-2
"182","CDISCPILOT01","SC","01-710-1385",1,"EDLEVEL","EDUCATION LEVEL","EDUCATION","18","YEARS","18",18,"YEARS","2012-10-21",-8
"183","CDISCPILOT01","SC","01-710-1408",1,"EDLEVEL","EDUCATION LEVEL","EDUCATION","12","YEARS","12",12,"YEARS","2012-12-26",-10
"184","CDISCPILOT01","SC","01-711-1012",1,"EDLEVEL","EDUCATION LEVEL","EDUCATION","12","YEARS","12",12,"YEARS","2013-03-20",-14
"185","CDISCPILOT01","SC","01-711-1036",1,"EDLEVEL","EDUCATION LEVEL","EDUCATION","9","YEARS","9",9,"YEARS","2012-07-20",-9
"186","CDISCPILOT01","SC","01-711-1143",1,"EDLEVEL","EDUCATION LEVEL","EDUCATION","12","YEARS","12",12,"YEARS","2013-03-30",-4
"187","CDISCPILOT01","SC","01-711-1433",1,"EDLEVEL","EDUCATION LEVEL","EDUCATION","12","YEARS","12",12,"YEARS","2013-01-23",-4
"188","CDISCPILOT01","SC","01-713-1043",1,"EDLEVEL","EDUCATION LEVEL","EDUCATION","8","YEARS","8",8,"YEARS","2013-08-17",-29
"189","CDISCPILOT01","SC","01-713-1073",1,"EDLEVEL","EDUCATION LEVEL","EDUCATION","6","YEARS","6",6,"YEARS","2014-03-15",-15
"190","CDISCPILOT01","SC","01-713-1106",1,"EDLEVEL","EDUCATION LEVEL","EDUCATION","16","YEARS","16",16,"YEARS","2012-10-03",-28
"191","CDISCPILOT01","SC","01-713-1141",1,"EDLEVEL","EDUCATION LEVEL","EDUCATION","13","YEARS","13",13,"YEARS","2013-05-23",-8
"192","CDISCPILOT01","SC","01-713-1179",1,"EDLEVEL","EDUCATION LEVEL","EDUCATION","12","YEARS","12",12,"YEARS","2013-07-11",-29
"193","CDISCPILOT01","SC","01-713-1209",1,"EDLEVEL","EDUCATION LEVEL","EDUCATION","12","YEARS","12",12,"YEARS","2013-05-16",-11
"194","CDISCPILOT01","SC","01-713-1256",1,"EDLEVEL","EDUCATION LEVEL","EDUCATION","16","YEARS","16",16,"YEARS","2012-09-10",-9
"195","CDISCPILOT01","SC","01-713-1269",1,"EDLEVEL","EDUCATION LEVEL","EDUCATION","16","YEARS","16",16,"YEARS","2014-01-14",-13
"196","CDISCPILOT01","SC","01-713-1448",1,"EDLEVEL","EDUCATION LEVEL","EDUCATION","13","YEARS","13",13,"YEARS","2014-01-05",-14
"197","CDISCPILOT01","SC","01-714-1035",1,"EDLEVEL","EDUCATION LEVEL","EDUCATION","12","YEARS","12",12,"YEARS","2014-04-03",-14
"198","CDISCPILOT01","SC","01-714-1068",1,"EDLEVEL","EDUCATION LEVEL","EDUCATION","9","YEARS","9",9,"YEARS","2013-07-31",-8
"199","CDISCPILOT01","SC","01-714-1195",1,"EDLEVEL","EDUCATION LEVEL","EDUCATION","16","YEARS","16",16,"YEARS","2013-04-16",-10
"200","CDISCPILOT01","SC","01-714-1288",1,"EDLEVEL","EDUCATION LEVEL","EDUCATION","6","YEARS","6",6,"YEARS","2013-11-24",-10
"201","CDISCPILOT01","SC","01-714-1375",1,"EDLEVEL","EDUCATION LEVEL","EDUCATION","10","YEARS","10",10,"YEARS","2013-02-23",-3
"202","CDISCPILOT01","SC","01-714-1425",1,"EDLEVEL","EDUCATION LEVEL","EDUCATION","16","YEARS","16",16,"YEARS","2013-08-11",-4
"203","CDISCPILOT01","SC","01-715-1085",1,"EDLEVEL","EDUCATION LEVEL","EDUCATION","14","YEARS","14",14,"YEARS","2013-02-03",-13
"204","CDISCPILOT01","SC","01-715-1107",1,"EDLEVEL","EDUCATION LEVEL","EDUCATION","12","YEARS","12",12,"YEARS","2013-02-12",-14
"205","CDISCPILOT01","SC","01-715-1155",1,"EDLEVEL","EDUCATION LEVEL","EDUCATION","12","YEARS","12",12,"YEARS","2013-11-29",-14
"206","CDISCPILOT01","SC","01-715-1207",1,"EDLEVEL","EDUCATION LEVEL","EDUCATION","7","YEARS","7",7,"YEARS","2012-11-12",-6
"207","CDISCPILOT01","SC","01-715-1319",1,"EDLEVEL","EDUCATION LEVEL","EDUCATION","13","YEARS","13",13,"YEARS","2013-02-03",-14
"208","CDISCPILOT01","SC","01-715-1321",1,"EDLEVEL","EDUCATION LEVEL","EDUCATION","12","YEARS","12",12,"YEARS","2014-02-06",-5
"209","CDISCPILOT01","SC","01-715-1397",1,"EDLEVEL","EDUCATION LEVEL","EDUCATION","11","YEARS","11",11,"YEARS","2013-03-20",-14
"210","CDISCPILOT01","SC","01-715-1405",1,"EDLEVEL","EDUCATION LEVEL","EDUCATION","16","YEARS","16",16,"YEARS","2013-06-27",-9
"211","CDISCPILOT01","SC","01-716-1024",1,"EDLEVEL","EDUCATION LEVEL","EDUCATION","12","YEARS","12",12,"YEARS","2012-07-06",-3
"212","CDISCPILOT01","SC","01-716-1026",1,"EDLEVEL","EDUCATION LEVEL","EDUCATION","12","YEARS","12",12,"YEARS","2014-03-23",-10
"213","CDISCPILOT01","SC","01-716-1030",1,"EDLEVEL","EDUCATION LEVEL","EDUCATION","12","YEARS","12",12,"YEARS","2013-12-25",-3
"214","CDISCPILOT01","SC","01-716-1044",1,"EDLEVEL","EDUCATION LEVEL","EDUCATION","12","YEARS","12",12,"YEARS","2013-04-20",-7
"215","CDISCPILOT01","SC","01-716-1063",1,"EDLEVEL","EDUCATION LEVEL","EDUCATION","8","YEARS","8",8,"YEARS","2013-05-06",-3
"216","CDISCPILOT01","SC","01-716-1071",1,"EDLEVEL","EDUCATION LEVEL","EDUCATION","12","YEARS","12",12,"YEARS","2013-06-03",-5
"217","CDISCPILOT01","SC","01-716-1094",1,"EDLEVEL","EDUCATION LEVEL","EDUCATION","8","YEARS","8",8,"YEARS","2012-12-16",-3
"218","CDISCPILOT01","SC","01-716-1103",1,"EDLEVEL","EDUCATION LEVEL","EDUCATION","8","YEARS","8",8,"YEARS","2014-03-18",-2
"219","CDISCPILOT01","SC","01-716-1108",1,"EDLEVEL","EDUCATION LEVEL","EDUCATION","12","YEARS","12",12,"YEARS","2013-02-04",-8
"220","CDISCPILOT01","SC","01-716-1151",1,"EDLEVEL","EDUCATION LEVEL","EDUCATION","18","YEARS","18",18,"YEARS","2013-01-23",-9
"221","CDISCPILOT01","SC","01-716-1157",1,"EDLEVEL","EDUCATION LEVEL","EDUCATION","14","YEARS","14",14,"YEARS","2013-09-23",-9
"222","CDISCPILOT01","SC","01-716-1160",1,"EDLEVEL","EDUCATION LEVEL","EDUCATION","12","YEARS","12",12,"YEARS","2013-03-23",-13
"223","CDISCPILOT01","SC","01-716-1167",1,"EDLEVEL","EDUCATION LEVEL","EDUCATION","12","YEARS","12",12,"YEARS","2012-09-30",-8
"224","CDISCPILOT01","SC","01-716-1177",1,"EDLEVEL","EDUCATION LEVEL","EDUCATION","12","YEARS","12",12,"YEARS","2014-08-29",-4
"225","CDISCPILOT01","SC","01-716-1189",1,"EDLEVEL","EDUCATION LEVEL","EDUCATION","9","YEARS","9",9,"YEARS","2012-10-07",-2
"226","CDISCPILOT01","SC","01-716-1229",1,"EDLEVEL","EDUCATION LEVEL","EDUCATION","16","YEARS","16",16,"YEARS","2013-02-14",-6
"227","CDISCPILOT01","SC","01-716-1298",1,"EDLEVEL","EDUCATION LEVEL","EDUCATION","12","YEARS","12",12,"YEARS","2013-04-04",-4
"228","CDISCPILOT01","SC","01-716-1308",1,"EDLEVEL","EDUCATION LEVEL","EDUCATION","13","YEARS","13",13,"YEARS","2013-08-23",-5
"229","CDISCPILOT01","SC","01-716-1311",1,"EDLEVEL","EDUCATION LEVEL","EDUCATION","14","YEARS","14",14,"YEARS","2014-05-08",-6
"230","CDISCPILOT01","SC","01-716-1364",1,"EDLEVEL","EDUCATION LEVEL","EDUCATION","12","YEARS","12",12,"YEARS","2013-06-27",-7
"231","CDISCPILOT01","SC","01-716-1373",1,"EDLEVEL","EDUCATION LEVEL","EDUCATION","16","YEARS","16",16,"YEARS","2012-11-24",-20
"232","CDISCPILOT01","SC","01-716-1418",1,"EDLEVEL","EDUCATION LEVEL","EDUCATION","8","YEARS","8",8,"YEARS","2013-04-27",-8
"233","CDISCPILOT01","SC","01-716-1441",1,"EDLEVEL","EDUCATION LEVEL","EDUCATION","10","YEARS","10",10,"YEARS","2014-01-13",-9
"234","CDISCPILOT01","SC","01-716-1447",1,"EDLEVEL","EDUCATION LEVEL","EDUCATION","14","YEARS","14",14,"YEARS","2013-12-10",-6
"235","CDISCPILOT01","SC","01-717-1004",1,"EDLEVEL","EDUCATION LEVEL","EDUCATION","15","YEARS","15",15,"YEARS","2014-01-01",-13
"236","CDISCPILOT01","SC","01-717-1109",1,"EDLEVEL","EDUCATION LEVEL","EDUCATION","17","YEARS","17",17,"YEARS","2014-01-20",-7
"237","CDISCPILOT01","SC","01-717-1174",1,"EDLEVEL","EDUCATION LEVEL","EDUCATION","16","YEARS","16",16,"YEARS","2013-01-16",-6
"238","CDISCPILOT01","SC","01-717-1201",1,"EDLEVEL","EDUCATION LEVEL","EDUCATION","12","YEARS","12",12,"YEARS","2013-12-12",-7
"239","CDISCPILOT01","SC","01-717-1344",1,"EDLEVEL","EDUCATION LEVEL","EDUCATION","16","YEARS","16",16,"YEARS","2014-01-01",-10
"240","CDISCPILOT01","SC","01-717-1357",1,"EDLEVEL","EDUCATION LEVEL","EDUCATION","14","YEARS","14",14,"YEARS","2013-04-21",-10
"241","CDISCPILOT01","SC","01-717-1446",1,"EDLEVEL","EDUCATION LEVEL","EDUCATION","12","YEARS","12",12,"YEARS","2013-08-20",-12
"242","CDISCPILOT01","SC","01-718-1066",1,"EDLEVEL","EDUCATION LEVEL","EDUCATION","14","YEARS","14",14,"YEARS","2013-06-28",-9
"243","CDISCPILOT01","SC","01-718-1079",1,"EDLEVEL","EDUCATION LEVEL","EDUCATION","16","YEARS","16",16,"YEARS","2012-09-11",-8
"244","CDISCPILOT01","SC","01-718-1101",1,"EDLEVEL","EDUCATION LEVEL","EDUCATION","12","YEARS","12",12,"YEARS","2013-02-01",-16
"245","CDISCPILOT01","SC","01-718-1139",1,"EDLEVEL","EDUCATION LEVEL","EDUCATION","14","YEARS","14",14,"YEARS","2013-05-03",-16
"246","CDISCPILOT01","SC","01-718-1150",1,"EDLEVEL","EDUCATION LEVEL","EDUCATION","16","YEARS","16",16,"YEARS","2013-01-12",-7
"247","CDISCPILOT01","SC","01-718-1170",1,"EDLEVEL","EDUCATION LEVEL","EDUCATION","12","YEARS","12",12,"YEARS","2013-08-25",-22
"248","CDISCPILOT01","SC","01-718-1172",1,"EDLEVEL","EDUCATION LEVEL","EDUCATION","21","YEARS","21",21,"YEARS","2013-09-15",-6
"249","CDISCPILOT01","SC","01-718-1250",1,"EDLEVEL","EDUCATION LEVEL","EDUCATION","21","YEARS","21",21,"YEARS","2013-08-21",-31
"250","CDISCPILOT01","SC","01-718-1254",1,"EDLEVEL","EDUCATION LEVEL","EDUCATION","18","YEARS","18",18,"YEARS","2013-06-28",-12
"251","CDISCPILOT01","SC","01-718-1328",1,"EDLEVEL","EDUCATION LEVEL","EDUCATION","12","YEARS","12",12,"YEARS","2013-01-28",-4
"252","CDISCPILOT01","SC","01-718-1355",1,"EDLEVEL","EDUCATION LEVEL","EDUCATION","15","YEARS","15",15,"YEARS","2013-02-12",-16
"253","CDISCPILOT01","SC","01-718-1371",1,"EDLEVEL","EDUCATION LEVEL","EDUCATION","10","YEARS","10",10,"YEARS","2013-04-11",-15
"254","CDISCPILOT01","SC","01-718-1427",1,"EDLEVEL","EDUCATION LEVEL","EDUCATION","16","YEARS","16",16,"YEARS","2012-12-13",-4
