"","STUDYID","RDOMAIN","USUBJID","IDVAR","IDVARVAL","QNAM","QLABEL","QVAL","QORIG","QEVAL"
"1","CDISCPILOT01","AE","01-701-1015","AESEQ","1","AETRTEM","TREATMENT EMERGENT FLAG","Y","DERIVED","CLINICAL STUDY SPONSOR"
"2","CDISCPILOT01","AE","01-701-1015","AESEQ","2","AETRTEM","TREATMENT EMERGENT FLAG","Y","DERIVED","CLINICAL STUDY SPONSOR"
"3","CDISCPILOT01","AE","01-701-1015","AESEQ","3","AETRTEM","TREATMENT EMERGENT FLAG","Y","DERIVED","CLINICAL STUDY SPONSOR"
"4","CDISCPILOT01","AE","01-701-1023","AESEQ","1","AETRTEM","TREATMENT EMERGENT FLAG","Y","DERIVED","CLINICAL STUDY SPONSOR"
"5","CDISCPILOT01","AE","01-701-1023","AESEQ","2","AETRTEM","TREATMENT EMERGENT FLAG","Y","DERIVED","CLINICAL STUDY SPONSOR"
"6","CDISCPILOT01","AE","01-701-1023","AESEQ","3","AETRTEM","TREATMENT EMERGENT FLAG","Y","DERIVED","CLINICAL STUDY SPONSOR"
"7","CDISCPILOT01","AE","01-701-1023","AESEQ","4","AETRTEM","TREATMENT EMERGENT FLAG","Y","DERIVED","CLINICAL STUDY SPONSOR"
"8","CDISCPILOT01","AE","01-701-1028","AESEQ","1","AETRTEM","TREATMENT EMERGENT FLAG","Y","DERIVED","CLINICAL STUDY SPONSOR"
"9","CDISCPILOT01","AE","01-701-1028","AESEQ","2","AETRTEM","TREATMENT EMERGENT FLAG","Y","DERIVED","CLINICAL STUDY SPONSOR"
"10","CDISCPILOT01","AE","01-701-1034","AESEQ","1","AETRTEM","TREATMENT EMERGENT FLAG","Y","DERIVED","CLINICAL STUDY SPONSOR"
"11","CDISCPILOT01","AE","01-701-1034","AESEQ","2","AETRTEM","TREATMENT EMERGENT FLAG","Y","DERIVED","CLINICAL STUDY SPONSOR"
"12","CDISCPILOT01","AE","01-701-1047","AESEQ","1","AETRTEM","TREATMENT EMERGENT FLAG","Y","DERIVED","CLINICAL STUDY SPONSOR"
"13","CDISCPILOT01","AE","01-701-1047","AESEQ","2","AETRTEM","TREATMENT EMERGENT FLAG","Y","DERIVED","CLINICAL STUDY SPONSOR"
"14","CDISCPILOT01","AE","01-701-1047","AESEQ","3","AETRTEM","TREATMENT EMERGENT FLAG","Y","DERIVED","CLINICAL STUDY SPONSOR"
"15","CDISCPILOT01","AE","01-701-1047","AESEQ","4","AETRTEM","TREATMENT EMERGENT FLAG","Y","DERIVED","CLINICAL STUDY SPONSOR"
"16","CDISCPILOT01","AE","01-701-1097","AESEQ","1","AETRTEM","TREATMENT EMERGENT FLAG","Y","DERIVED","CLINICAL STUDY SPONSOR"
"17","CDISCPILOT01","AE","01-701-1097","AESEQ","10","AETRTEM","TREATMENT EMERGENT FLAG","Y","DERIVED","CLINICAL STUDY SPONSOR"
"18","CDISCPILOT01","AE","01-701-1097","AESEQ","2","AETRTEM","TREATMENT EMERGENT FLAG","Y","DERIVED","CLINICAL STUDY SPONSOR"
"19","CDISCPILOT01","AE","01-701-1097","AESEQ","3","AETRTEM","TREATMENT EMERGENT FLAG","Y","DERIVED","CLINICAL STUDY SPONSOR"
"20","CDISCPILOT01","AE","01-701-1097","AESEQ","4","AETRTEM","TREATMENT EMERGENT FLAG","Y","DERIVED","CLINICAL STUDY SPONSOR"
"21","CDISCPILOT01","AE","01-701-1097","AESEQ","5","AETRTEM","TREATMENT EMERGENT FLAG","Y","DERIVED","CLINICAL STUDY SPONSOR"
"22","CDISCPILOT01","AE","01-701-1097","AESEQ","6","AETRTEM","TREATMENT EMERGENT FLAG","Y","DERIVED","CLINICAL STUDY SPONSOR"
"23","CDISCPILOT01","AE","01-701-1097","AESEQ","7","AETRTEM","TREATMENT EMERGENT FLAG","Y","DERIVED","CLINICAL STUDY SPONSOR"
"24","CDISCPILOT01","AE","01-701-1097","AESEQ","8","AETRTEM","TREATMENT EMERGENT FLAG","Y","DERIVED","CLINICAL STUDY SPONSOR"
"25","CDISCPILOT01","AE","01-701-1097","AESEQ","9","AETRTEM","TREATMENT EMERGENT FLAG","Y","DERIVED","CLINICAL STUDY SPONSOR"
"26","CDISCPILOT01","AE","01-701-1111","AESEQ","1","AETRTEM","TREATMENT EMERGENT FLAG","N","DERIVED","CLINICAL STUDY SPONSOR"
"27","CDISCPILOT01","AE","01-701-1111","AESEQ","2","AETRTEM","TREATMENT EMERGENT FLAG","N","DERIVED","CLINICAL STUDY SPONSOR"
"28","CDISCPILOT01","AE","01-701-1111","AESEQ","3","AETRTEM","TREATMENT EMERGENT FLAG","N","DERIVED","CLINICAL STUDY SPONSOR"
"29","CDISCPILOT01","AE","01-701-1111","AESEQ","4","AETRTEM","TREATMENT EMERGENT FLAG","N","DERIVED","CLINICAL STUDY SPONSOR"
"30","CDISCPILOT01","AE","01-701-1111","AESEQ","5","AETRTEM","TREATMENT EMERGENT FLAG","N","DERIVED","CLINICAL STUDY SPONSOR"
"31","CDISCPILOT01","AE","01-701-1111","AESEQ","6","AETRTEM","TREATMENT EMERGENT FLAG","Y","DERIVED","CLINICAL STUDY SPONSOR"
"32","CDISCPILOT01","AE","01-701-1111","AESEQ","7","AETRTEM","TREATMENT EMERGENT FLAG","Y","DERIVED","CLINICAL STUDY SPONSOR"
"33","CDISCPILOT01","AE","01-701-1111","AESEQ","8","AETRTEM","TREATMENT EMERGENT FLAG","Y","DERIVED","CLINICAL STUDY SPONSOR"
"34","CDISCPILOT01","AE","01-701-1115","AESEQ","1","AETRTEM","TREATMENT EMERGENT FLAG","Y","DERIVED","CLINICAL STUDY SPONSOR"
"35","CDISCPILOT01","AE","01-701-1115","AESEQ","2","AETRTEM","TREATMENT EMERGENT FLAG","Y","DERIVED","CLINICAL STUDY SPONSOR"
"36","CDISCPILOT01","AE","01-701-1115","AESEQ","3","AETRTEM","TREATMENT EMERGENT FLAG","Y","DERIVED","CLINICAL STUDY SPONSOR"
"37","CDISCPILOT01","AE","01-701-1115","AESEQ","4","AETRTEM","TREATMENT EMERGENT FLAG","Y","DERIVED","CLINICAL STUDY SPONSOR"
"38","CDISCPILOT01","AE","01-701-1115","AESEQ","5","AETRTEM","TREATMENT EMERGENT FLAG","Y","DERIVED","CLINICAL STUDY SPONSOR"
"39","CDISCPILOT01","AE","01-701-1115","AESEQ","6","AETRTEM","TREATMENT EMERGENT FLAG","Y","DERIVED","CLINICAL STUDY SPONSOR"
"40","CDISCPILOT01","AE","01-701-1115","AESEQ","7","AETRTEM","TREATMENT EMERGENT FLAG","Y","DERIVED","CLINICAL STUDY SPONSOR"
"41","CDISCPILOT01","AE","01-701-1115","AESEQ","8","AETRTEM","TREATMENT EMERGENT FLAG","Y","DERIVED","CLINICAL STUDY SPONSOR"
"42","CDISCPILOT01","AE","01-701-1115","AESEQ","9","AETRTEM","TREATMENT EMERGENT FLAG","Y","DERIVED","CLINICAL STUDY SPONSOR"
"43","CDISCPILOT01","AE","01-701-1118","AESEQ","1","AETRTEM","TREATMENT EMERGENT FLAG","N","DERIVED","CLINICAL STUDY SPONSOR"
"44","CDISCPILOT01","AE","01-701-1130","AESEQ","1","AETRTEM","TREATMENT EMERGENT FLAG","Y","DERIVED","CLINICAL STUDY SPONSOR"
"45","CDISCPILOT01","AE","01-701-1130","AESEQ","2","AETRTEM","TREATMENT EMERGENT FLAG","Y","DERIVED","CLINICAL STUDY SPONSOR"
"46","CDISCPILOT01","AE","01-701-1130","AESEQ","3","AETRTEM","TREATMENT EMERGENT FLAG","Y","DERIVED","CLINICAL STUDY SPONSOR"
"47","CDISCPILOT01","AE","01-701-1130","AESEQ","4","AETRTEM","TREATMENT EMERGENT FLAG","Y","DERIVED","CLINICAL STUDY SPONSOR"
"48","CDISCPILOT01","AE","01-701-1130","AESEQ","5","AETRTEM","TREATMENT EMERGENT FLAG","Y","DERIVED","CLINICAL STUDY SPONSOR"
"49","CDISCPILOT01","AE","01-701-1130","AESEQ","6","AETRTEM","TREATMENT EMERGENT FLAG","Y","DERIVED","CLINICAL STUDY SPONSOR"
"50","CDISCPILOT01","AE","01-701-1130","AESEQ","7","AETRTEM","TREATMENT EMERGENT FLAG","Y","DERIVED","CLINICAL STUDY SPONSOR"
"51","CDISCPILOT01","AE","01-701-1130","AESEQ","8","AETRTEM","TREATMENT EMERGENT FLAG","Y","DERIVED","CLINICAL STUDY SPONSOR"
"52","CDISCPILOT01","AE","01-701-1133","AESEQ","1","AETRTEM","TREATMENT EMERGENT FLAG","Y","DERIVED","CLINICAL STUDY SPONSOR"
"53","CDISCPILOT01","AE","01-701-1133","AESEQ","2","AETRTEM","TREATMENT EMERGENT FLAG","Y","DERIVED","CLINICAL STUDY SPONSOR"
"54","CDISCPILOT01","AE","01-701-1133","AESEQ","3","AETRTEM","TREATMENT EMERGENT FLAG","Y","DERIVED","CLINICAL STUDY SPONSOR"
"55","CDISCPILOT01","AE","01-701-1133","AESEQ","4","AETRTEM","TREATMENT EMERGENT FLAG","Y","DERIVED","CLINICAL STUDY SPONSOR"
"56","CDISCPILOT01","AE","01-701-1146","AESEQ","1","AETRTEM","TREATMENT EMERGENT FLAG","N","DERIVED","CLINICAL STUDY SPONSOR"
"57","CDISCPILOT01","AE","01-701-1146","AESEQ","10","AETRTEM","TREATMENT EMERGENT FLAG","Y","DERIVED","CLINICAL STUDY SPONSOR"
"58","CDISCPILOT01","AE","01-701-1146","AESEQ","11","AETRTEM","TREATMENT EMERGENT FLAG","Y","DERIVED","CLINICAL STUDY SPONSOR"
"59","CDISCPILOT01","AE","01-701-1146","AESEQ","2","AETRTEM","TREATMENT EMERGENT FLAG","N","DERIVED","CLINICAL STUDY SPONSOR"
"60","CDISCPILOT01","AE","01-701-1146","AESEQ","3","AETRTEM","TREATMENT EMERGENT FLAG","Y","DERIVED","CLINICAL STUDY SPONSOR"
"61","CDISCPILOT01","AE","01-701-1146","AESEQ","4","AETRTEM","TREATMENT EMERGENT FLAG","Y","DERIVED","CLINICAL STUDY SPONSOR"
"62","CDISCPILOT01","AE","01-701-1146","AESEQ","5","AETRTEM","TREATMENT EMERGENT FLAG","Y","DERIVED","CLINICAL STUDY SPONSOR"
"63","CDISCPILOT01","AE","01-701-1146","AESEQ","6","AETRTEM","TREATMENT EMERGENT FLAG","Y","DERIVED","CLINICAL STUDY SPONSOR"
"64","CDISCPILOT01","AE","01-701-1146","AESEQ","7","AETRTEM","TREATMENT EMERGENT FLAG","Y","DERIVED","CLINICAL STUDY SPONSOR"
"65","CDISCPILOT01","AE","01-701-1146","AESEQ","8","AETRTEM","TREATMENT EMERGENT FLAG","Y","DERIVED","CLINICAL STUDY SPONSOR"
"66","CDISCPILOT01","AE","01-701-1146","AESEQ","9","AETRTEM","TREATMENT EMERGENT FLAG","Y","DERIVED","CLINICAL STUDY SPONSOR"
"67","CDISCPILOT01","AE","01-701-1148","AESEQ","1","AETRTEM","TREATMENT EMERGENT FLAG","Y","DERIVED","CLINICAL STUDY SPONSOR"
"68","CDISCPILOT01","AE","01-701-1148","AESEQ","10","AETRTEM","TREATMENT EMERGENT FLAG","Y","DERIVED","CLINICAL STUDY SPONSOR"
"69","CDISCPILOT01","AE","01-701-1148","AESEQ","2","AETRTEM","TREATMENT EMERGENT FLAG","Y","DERIVED","CLINICAL STUDY SPONSOR"
"70","CDISCPILOT01","AE","01-701-1148","AESEQ","3","AETRTEM","TREATMENT EMERGENT FLAG","Y","DERIVED","CLINICAL STUDY SPONSOR"
"71","CDISCPILOT01","AE","01-701-1148","AESEQ","4","AETRTEM","TREATMENT EMERGENT FLAG","Y","DERIVED","CLINICAL STUDY SPONSOR"
"72","CDISCPILOT01","AE","01-701-1148","AESEQ","5","AETRTEM","TREATMENT EMERGENT FLAG","Y","DERIVED","CLINICAL STUDY SPONSOR"
"73","CDISCPILOT01","AE","01-701-1148","AESEQ","6","AETRTEM","TREATMENT EMERGENT FLAG","Y","DERIVED","CLINICAL STUDY SPONSOR"
"74","CDISCPILOT01","AE","01-701-1148","AESEQ","7","AETRTEM","TREATMENT EMERGENT FLAG","Y","DERIVED","CLINICAL STUDY SPONSOR"
"75","CDISCPILOT01","AE","01-701-1148","AESEQ","8","AETRTEM","TREATMENT EMERGENT FLAG","N","DERIVED","CLINICAL STUDY SPONSOR"
"76","CDISCPILOT01","AE","01-701-1148","AESEQ","9","AETRTEM","TREATMENT EMERGENT FLAG","N","DERIVED","CLINICAL STUDY SPONSOR"
"77","CDISCPILOT01","AE","01-701-1153","AESEQ","1","AETRTEM","TREATMENT EMERGENT FLAG","Y","DERIVED","CLINICAL STUDY SPONSOR"
"78","CDISCPILOT01","AE","01-701-1153","AESEQ","2","AETRTEM","TREATMENT EMERGENT FLAG","Y","DERIVED","CLINICAL STUDY SPONSOR"
"79","CDISCPILOT01","AE","01-701-1180","AESEQ","1","AETRTEM","TREATMENT EMERGENT FLAG","Y","DERIVED","CLINICAL STUDY SPONSOR"
"80","CDISCPILOT01","AE","01-701-1180","AESEQ","2","AETRTEM","TREATMENT EMERGENT FLAG","Y","DERIVED","CLINICAL STUDY SPONSOR"
"81","CDISCPILOT01","AE","01-701-1180","AESEQ","3","AETRTEM","TREATMENT EMERGENT FLAG","Y","DERIVED","CLINICAL STUDY SPONSOR"
"82","CDISCPILOT01","AE","01-701-1180","AESEQ","4","AETRTEM","TREATMENT EMERGENT FLAG","N","DERIVED","CLINICAL STUDY SPONSOR"
"83","CDISCPILOT01","AE","01-701-1180","AESEQ","5","AETRTEM","TREATMENT EMERGENT FLAG","Y","DERIVED","CLINICAL STUDY SPONSOR"
"84","CDISCPILOT01","AE","01-701-1180","AESEQ","6","AETRTEM","TREATMENT EMERGENT FLAG","Y","DERIVED","CLINICAL STUDY SPONSOR"
"85","CDISCPILOT01","AE","01-701-1180","AESEQ","7","AETRTEM","TREATMENT EMERGENT FLAG","Y","DERIVED","CLINICAL STUDY SPONSOR"
"86","CDISCPILOT01","AE","01-701-1180","AESEQ","8","AETRTEM","TREATMENT EMERGENT FLAG","Y","DERIVED","CLINICAL STUDY SPONSOR"
"87","CDISCPILOT01","AE","01-701-1180","AESEQ","9","AETRTEM","TREATMENT EMERGENT FLAG","Y","DERIVED","CLINICAL STUDY SPONSOR"
"88","CDISCPILOT01","AE","01-701-1181","AESEQ","1","AETRTEM","TREATMENT EMERGENT FLAG","Y","DERIVED","CLINICAL STUDY SPONSOR"
"89","CDISCPILOT01","AE","01-701-1188","AESEQ","1","AETRTEM","TREATMENT EMERGENT FLAG","Y","DERIVED","CLINICAL STUDY SPONSOR"
"90","CDISCPILOT01","AE","01-701-1188","AESEQ","2","AETRTEM","TREATMENT EMERGENT FLAG","Y","DERIVED","CLINICAL STUDY SPONSOR"
"91","CDISCPILOT01","AE","01-701-1188","AESEQ","3","AETRTEM","TREATMENT EMERGENT FLAG","Y","DERIVED","CLINICAL STUDY SPONSOR"
"92","CDISCPILOT01","AE","01-701-1188","AESEQ","4","AETRTEM","TREATMENT EMERGENT FLAG","Y","DERIVED","CLINICAL STUDY SPONSOR"
"93","CDISCPILOT01","AE","01-701-1188","AESEQ","5","AETRTEM","TREATMENT EMERGENT FLAG","Y","DERIVED","CLINICAL STUDY SPONSOR"
"94","CDISCPILOT01","AE","01-701-1188","AESEQ","6","AETRTEM","TREATMENT EMERGENT FLAG","Y","DERIVED","CLINICAL STUDY SPONSOR"
"95","CDISCPILOT01","AE","01-701-1188","AESEQ","7","AETRTEM","TREATMENT EMERGENT FLAG","Y","DERIVED","CLINICAL STUDY SPONSOR"
"96","CDISCPILOT01","AE","01-701-1188","AESEQ","8","AETRTEM","TREATMENT EMERGENT FLAG","Y","DERIVED","CLINICAL STUDY SPONSOR"
"97","CDISCPILOT01","AE","01-701-1192","AESEQ","1","AETRTEM","TREATMENT EMERGENT FLAG","Y","DERIVED","CLINICAL STUDY SPONSOR"
"98","CDISCPILOT01","AE","01-701-1192","AESEQ","10","AETRTEM","TREATMENT EMERGENT FLAG","Y","DERIVED","CLINICAL STUDY SPONSOR"
"99","CDISCPILOT01","AE","01-701-1192","AESEQ","11","AETRTEM","TREATMENT EMERGENT FLAG","Y","DERIVED","CLINICAL STUDY SPONSOR"
"100","CDISCPILOT01","AE","01-701-1192","AESEQ","12","AETRTEM","TREATMENT EMERGENT FLAG","Y","DERIVED","CLINICAL STUDY SPONSOR"
"101","CDISCPILOT01","AE","01-701-1192","AESEQ","13","AETRTEM","TREATMENT EMERGENT FLAG","Y","DERIVED","CLINICAL STUDY SPONSOR"
"102","CDISCPILOT01","AE","01-701-1192","AESEQ","14","AETRTEM","TREATMENT EMERGENT FLAG","Y","DERIVED","CLINICAL STUDY SPONSOR"
"103","CDISCPILOT01","AE","01-701-1192","AESEQ","15","AETRTEM","TREATMENT EMERGENT FLAG","Y","DERIVED","CLINICAL STUDY SPONSOR"
"104","CDISCPILOT01","AE","01-701-1192","AESEQ","2","AETRTEM","TREATMENT EMERGENT FLAG","Y","DERIVED","CLINICAL STUDY SPONSOR"
"105","CDISCPILOT01","AE","01-701-1192","AESEQ","3","AETRTEM","TREATMENT EMERGENT FLAG","Y","DERIVED","CLINICAL STUDY SPONSOR"
"106","CDISCPILOT01","AE","01-701-1192","AESEQ","4","AETRTEM","TREATMENT EMERGENT FLAG","N","DERIVED","CLINICAL STUDY SPONSOR"
"107","CDISCPILOT01","AE","01-701-1192","AESEQ","5","AETRTEM","TREATMENT EMERGENT FLAG","Y","DERIVED","CLINICAL STUDY SPONSOR"
"108","CDISCPILOT01","AE","01-701-1192","AESEQ","6","AETRTEM","TREATMENT EMERGENT FLAG","Y","DERIVED","CLINICAL STUDY SPONSOR"
"109","CDISCPILOT01","AE","01-701-1192","AESEQ","7","AETRTEM","TREATMENT EMERGENT FLAG","Y","DERIVED","CLINICAL STUDY SPONSOR"
"110","CDISCPILOT01","AE","01-701-1192","AESEQ","8","AETRTEM","TREATMENT EMERGENT FLAG","Y","DERIVED","CLINICAL STUDY SPONSOR"
"111","CDISCPILOT01","AE","01-701-1192","AESEQ","9","AETRTEM","TREATMENT EMERGENT FLAG","N","DERIVED","CLINICAL STUDY SPONSOR"
"112","CDISCPILOT01","AE","01-701-1203","AESEQ","1","AETRTEM","TREATMENT EMERGENT FLAG","Y","DERIVED","CLINICAL STUDY SPONSOR"
"113","CDISCPILOT01","AE","01-701-1211","AESEQ","1","AETRTEM","TREATMENT EMERGENT FLAG","Y","DERIVED","CLINICAL STUDY SPONSOR"
"114","CDISCPILOT01","AE","01-701-1211","AESEQ","2","AETRTEM","TREATMENT EMERGENT FLAG","Y","DERIVED","CLINICAL STUDY SPONSOR"
"115","CDISCPILOT01","AE","01-701-1211","AESEQ","3","AETRTEM","TREATMENT EMERGENT FLAG","Y","DERIVED","CLINICAL STUDY SPONSOR"
"116","CDISCPILOT01","AE","01-701-1211","AESEQ","4","AETRTEM","TREATMENT EMERGENT FLAG","Y","DERIVED","CLINICAL STUDY SPONSOR"
"117","CDISCPILOT01","AE","01-701-1211","AESEQ","5","AETRTEM","TREATMENT EMERGENT FLAG","Y","DERIVED","CLINICAL STUDY SPONSOR"
"118","CDISCPILOT01","AE","01-701-1211","AESEQ","6","AETRTEM","TREATMENT EMERGENT FLAG","Y","DERIVED","CLINICAL STUDY SPONSOR"
"119","CDISCPILOT01","AE","01-701-1211","AESEQ","7","AETRTEM","TREATMENT EMERGENT FLAG","Y","DERIVED","CLINICAL STUDY SPONSOR"
"120","CDISCPILOT01","AE","01-701-1211","AESEQ","8","AETRTEM","TREATMENT EMERGENT FLAG","Y","DERIVED","CLINICAL STUDY SPONSOR"
"121","CDISCPILOT01","AE","01-701-1211","AESEQ","9","AETRTEM","TREATMENT EMERGENT FLAG","Y","DERIVED","CLINICAL STUDY SPONSOR"
"122","CDISCPILOT01","AE","01-701-1239","AESEQ","1","AETRTEM","TREATMENT EMERGENT FLAG","Y","DERIVED","CLINICAL STUDY SPONSOR"
"123","CDISCPILOT01","AE","01-701-1239","AESEQ","10","AETRTEM","TREATMENT EMERGENT FLAG","Y","DERIVED","CLINICAL STUDY SPONSOR"
"124","CDISCPILOT01","AE","01-701-1239","AESEQ","2","AETRTEM","TREATMENT EMERGENT FLAG","Y","DERIVED","CLINICAL STUDY SPONSOR"
"125","CDISCPILOT01","AE","01-701-1239","AESEQ","3","AETRTEM","TREATMENT EMERGENT FLAG","Y","DERIVED","CLINICAL STUDY SPONSOR"
"126","CDISCPILOT01","AE","01-701-1239","AESEQ","4","AETRTEM","TREATMENT EMERGENT FLAG","Y","DERIVED","CLINICAL STUDY SPONSOR"
"127","CDISCPILOT01","AE","01-701-1239","AESEQ","5","AETRTEM","TREATMENT EMERGENT FLAG","Y","DERIVED","CLINICAL STUDY SPONSOR"
"128","CDISCPILOT01","AE","01-701-1239","AESEQ","6","AETRTEM","TREATMENT EMERGENT FLAG","Y","DERIVED","CLINICAL STUDY SPONSOR"
"129","CDISCPILOT01","AE","01-701-1239","AESEQ","7","AETRTEM","TREATMENT EMERGENT FLAG","Y","DERIVED","CLINICAL STUDY SPONSOR"
"130","CDISCPILOT01","AE","01-701-1239","AESEQ","8","AETRTEM","TREATMENT EMERGENT FLAG","Y","DERIVED","CLINICAL STUDY SPONSOR"
"131","CDISCPILOT01","AE","01-701-1239","AESEQ","9","AETRTEM","TREATMENT EMERGENT FLAG","Y","DERIVED","CLINICAL STUDY SPONSOR"
"132","CDISCPILOT01","AE","01-701-1275","AESEQ","1","AETRTEM","TREATMENT EMERGENT FLAG","Y","DERIVED","CLINICAL STUDY SPONSOR"
"133","CDISCPILOT01","AE","01-701-1275","AESEQ","10","AETRTEM","TREATMENT EMERGENT FLAG","Y","DERIVED","CLINICAL STUDY SPONSOR"
"134","CDISCPILOT01","AE","01-701-1275","AESEQ","11","AETRTEM","TREATMENT EMERGENT FLAG","Y","DERIVED","CLINICAL STUDY SPONSOR"
"135","CDISCPILOT01","AE","01-701-1275","AESEQ","12","AETRTEM","TREATMENT EMERGENT FLAG","Y","DERIVED","CLINICAL STUDY SPONSOR"
"136","CDISCPILOT01","AE","01-701-1275","AESEQ","13","AETRTEM","TREATMENT EMERGENT FLAG","Y","DERIVED","CLINICAL STUDY SPONSOR"
"137","CDISCPILOT01","AE","01-701-1275","AESEQ","14","AETRTEM","TREATMENT EMERGENT FLAG","Y","DERIVED","CLINICAL STUDY SPONSOR"
"138","CDISCPILOT01","AE","01-701-1275","AESEQ","15","AETRTEM","TREATMENT EMERGENT FLAG","Y","DERIVED","CLINICAL STUDY SPONSOR"
"139","CDISCPILOT01","AE","01-701-1275","AESEQ","2","AETRTEM","TREATMENT EMERGENT FLAG","Y","DERIVED","CLINICAL STUDY SPONSOR"
"140","CDISCPILOT01","AE","01-701-1275","AESEQ","3","AETRTEM","TREATMENT EMERGENT FLAG","Y","DERIVED","CLINICAL STUDY SPONSOR"
"141","CDISCPILOT01","AE","01-701-1275","AESEQ","4","AETRTEM","TREATMENT EMERGENT FLAG","Y","DERIVED","CLINICAL STUDY SPONSOR"
"142","CDISCPILOT01","AE","01-701-1275","AESEQ","5","AETRTEM","TREATMENT EMERGENT FLAG","Y","DERIVED","CLINICAL STUDY SPONSOR"
"143","CDISCPILOT01","AE","01-701-1275","AESEQ","6","AETRTEM","TREATMENT EMERGENT FLAG","Y","DERIVED","CLINICAL STUDY SPONSOR"
"144","CDISCPILOT01","AE","01-701-1275","AESEQ","7","AETRTEM","TREATMENT EMERGENT FLAG","Y","DERIVED","CLINICAL STUDY SPONSOR"
"145","CDISCPILOT01","AE","01-701-1275","AESEQ","8","AETRTEM","TREATMENT EMERGENT FLAG","Y","DERIVED","CLINICAL STUDY SPONSOR"
"146","CDISCPILOT01","AE","01-701-1275","AESEQ","9","AETRTEM","TREATMENT EMERGENT FLAG","Y","DERIVED","CLINICAL STUDY SPONSOR"
"147","CDISCPILOT01","AE","01-701-1287","AESEQ","1","AETRTEM","TREATMENT EMERGENT FLAG","Y","DERIVED","CLINICAL STUDY SPONSOR"
"148","CDISCPILOT01","AE","01-701-1287","AESEQ","2","AETRTEM","TREATMENT EMERGENT FLAG","Y","DERIVED","CLINICAL STUDY SPONSOR"
"149","CDISCPILOT01","AE","01-701-1287","AESEQ","3","AETRTEM","TREATMENT EMERGENT FLAG","Y","DERIVED","CLINICAL STUDY SPONSOR"
"150","CDISCPILOT01","AE","01-701-1287","AESEQ","4","AETRTEM","TREATMENT EMERGENT FLAG","Y","DERIVED","CLINICAL STUDY SPONSOR"
"151","CDISCPILOT01","AE","01-701-1287","AESEQ","5","AETRTEM","TREATMENT EMERGENT FLAG","Y","DERIVED","CLINICAL STUDY SPONSOR"
"152","CDISCPILOT01","AE","01-701-1294","AESEQ","1","AETRTEM","TREATMENT EMERGENT FLAG","N","DERIVED","CLINICAL STUDY SPONSOR"
"153","CDISCPILOT01","AE","01-701-1294","AESEQ","2","AETRTEM","TREATMENT EMERGENT FLAG","Y","DERIVED","CLINICAL STUDY SPONSOR"
"154","CDISCPILOT01","AE","01-701-1294","AESEQ","3","AETRTEM","TREATMENT EMERGENT FLAG","Y","DERIVED","CLINICAL STUDY SPONSOR"
"155","CDISCPILOT01","AE","01-701-1294","AESEQ","4","AETRTEM","TREATMENT EMERGENT FLAG","Y","DERIVED","CLINICAL STUDY SPONSOR"
"156","CDISCPILOT01","AE","01-701-1294","AESEQ","5","AETRTEM","TREATMENT EMERGENT FLAG","Y","DERIVED","CLINICAL STUDY SPONSOR"
"157","CDISCPILOT01","AE","01-701-1294","AESEQ","6","AETRTEM","TREATMENT EMERGENT FLAG","Y","DERIVED","CLINICAL STUDY SPONSOR"
"158","CDISCPILOT01","AE","01-701-1302","AESEQ","1","AETRTEM","TREATMENT EMERGENT FLAG","Y","DERIVED","CLINICAL STUDY SPONSOR"
"159","CDISCPILOT01","AE","01-701-1302","AESEQ","10","AETRTEM","TREATMENT EMERGENT FLAG","Y","DERIVED","CLINICAL STUDY SPONSOR"
"160","CDISCPILOT01","AE","01-701-1302","AESEQ","11","AETRTEM","TREATMENT EMERGENT FLAG","Y","DERIVED","CLINICAL STUDY SPONSOR"
"161","CDISCPILOT01","AE","01-701-1302","AESEQ","12","AETRTEM","TREATMENT EMERGENT FLAG","Y","DERIVED","CLINICAL STUDY SPONSOR"
"162","CDISCPILOT01","AE","01-701-1302","AESEQ","13","AETRTEM","TREATMENT EMERGENT FLAG","Y","DERIVED","CLINICAL STUDY SPONSOR"
"163","CDISCPILOT01","AE","01-701-1302","AESEQ","14","AETRTEM","TREATMENT EMERGENT FLAG","Y","DERIVED","CLINICAL STUDY SPONSOR"
"164","CDISCPILOT01","AE","01-701-1302","AESEQ","15","AETRTEM","TREATMENT EMERGENT FLAG","Y","DERIVED","CLINICAL STUDY SPONSOR"
"165","CDISCPILOT01","AE","01-701-1302","AESEQ","16","AETRTEM","TREATMENT EMERGENT FLAG","Y","DERIVED","CLINICAL STUDY SPONSOR"
"166","CDISCPILOT01","AE","01-701-1302","AESEQ","17","AETRTEM","TREATMENT EMERGENT FLAG","Y","DERIVED","CLINICAL STUDY SPONSOR"
"167","CDISCPILOT01","AE","01-701-1302","AESEQ","18","AETRTEM","TREATMENT EMERGENT FLAG","Y","DERIVED","CLINICAL STUDY SPONSOR"
"168","CDISCPILOT01","AE","01-701-1302","AESEQ","19","AETRTEM","TREATMENT EMERGENT FLAG","Y","DERIVED","CLINICAL STUDY SPONSOR"
"169","CDISCPILOT01","AE","01-701-1302","AESEQ","2","AETRTEM","TREATMENT EMERGENT FLAG","Y","DERIVED","CLINICAL STUDY SPONSOR"
"170","CDISCPILOT01","AE","01-701-1302","AESEQ","20","AETRTEM","TREATMENT EMERGENT FLAG","Y","DERIVED","CLINICAL STUDY SPONSOR"
"171","CDISCPILOT01","AE","01-701-1302","AESEQ","21","AETRTEM","TREATMENT EMERGENT FLAG","Y","DERIVED","CLINICAL STUDY SPONSOR"
"172","CDISCPILOT01","AE","01-701-1302","AESEQ","22","AETRTEM","TREATMENT EMERGENT FLAG","Y","DERIVED","CLINICAL STUDY SPONSOR"
"173","CDISCPILOT01","AE","01-701-1302","AESEQ","23","AETRTEM","TREATMENT EMERGENT FLAG","Y","DERIVED","CLINICAL STUDY SPONSOR"
"174","CDISCPILOT01","AE","01-701-1302","AESEQ","3","AETRTEM","TREATMENT EMERGENT FLAG","Y","DERIVED","CLINICAL STUDY SPONSOR"
"175","CDISCPILOT01","AE","01-701-1302","AESEQ","4","AETRTEM","TREATMENT EMERGENT FLAG","Y","DERIVED","CLINICAL STUDY SPONSOR"
"176","CDISCPILOT01","AE","01-701-1302","AESEQ","5","AETRTEM","TREATMENT EMERGENT FLAG","Y","DERIVED","CLINICAL STUDY SPONSOR"
"177","CDISCPILOT01","AE","01-701-1302","AESEQ","6","AETRTEM","TREATMENT EMERGENT FLAG","Y","DERIVED","CLINICAL STUDY SPONSOR"
"178","CDISCPILOT01","AE","01-701-1302","AESEQ","7","AETRTEM","TREATMENT EMERGENT FLAG","Y","DERIVED","CLINICAL STUDY SPONSOR"
"179","CDISCPILOT01","AE","01-701-1302","AESEQ","8","AETRTEM","TREATMENT EMERGENT FLAG","Y","DERIVED","CLINICAL STUDY SPONSOR"
"180","CDISCPILOT01","AE","01-701-1302","AESEQ","9","AETRTEM","TREATMENT EMERGENT FLAG","Y","DERIVED","CLINICAL STUDY SPONSOR"
"181","CDISCPILOT01","AE","01-701-1317","AESEQ","1","AETRTEM","TREATMENT EMERGENT FLAG","N","DERIVED","CLINICAL STUDY SPONSOR"
"182","CDISCPILOT01","AE","01-701-1317","AESEQ","2","AETRTEM","TREATMENT EMERGENT FLAG","N","DERIVED","CLINICAL STUDY SPONSOR"
"183","CDISCPILOT01","AE","01-701-1317","AESEQ","3","AETRTEM","TREATMENT EMERGENT FLAG","Y","DERIVED","CLINICAL STUDY SPONSOR"
"184","CDISCPILOT01","AE","01-701-1317","AESEQ","4","AETRTEM","TREATMENT EMERGENT FLAG","Y","DERIVED","CLINICAL STUDY SPONSOR"
"185","CDISCPILOT01","AE","01-701-1317","AESEQ","5","AETRTEM","TREATMENT EMERGENT FLAG","Y","DERIVED","CLINICAL STUDY SPONSOR"
"186","CDISCPILOT01","AE","01-701-1317","AESEQ","6","AETRTEM","TREATMENT EMERGENT FLAG","Y","DERIVED","CLINICAL STUDY SPONSOR"
"187","CDISCPILOT01","AE","01-701-1317","AESEQ","7","AETRTEM","TREATMENT EMERGENT FLAG","Y","DERIVED","CLINICAL STUDY SPONSOR"
"188","CDISCPILOT01","AE","01-701-1317","AESEQ","8","AETRTEM","TREATMENT EMERGENT FLAG","Y","DERIVED","CLINICAL STUDY SPONSOR"
"189","CDISCPILOT01","AE","01-701-1317","AESEQ","9","AETRTEM","TREATMENT EMERGENT FLAG","Y","DERIVED","CLINICAL STUDY SPONSOR"
"190","CDISCPILOT01","AE","01-701-1324","AESEQ","1","AETRTEM","TREATMENT EMERGENT FLAG","Y","DERIVED","CLINICAL STUDY SPONSOR"
"191","CDISCPILOT01","AE","01-701-1324","AESEQ","2","AETRTEM","TREATMENT EMERGENT FLAG","Y","DERIVED","CLINICAL STUDY SPONSOR"
"192","CDISCPILOT01","AE","01-701-1324","AESEQ","3","AETRTEM","TREATMENT EMERGENT FLAG","Y","DERIVED","CLINICAL STUDY SPONSOR"
"193","CDISCPILOT01","AE","01-701-1324","AESEQ","4","AETRTEM","TREATMENT EMERGENT FLAG","Y","DERIVED","CLINICAL STUDY SPONSOR"
"194","CDISCPILOT01","AE","01-701-1341","AESEQ","1","AETRTEM","TREATMENT EMERGENT FLAG","Y","DERIVED","CLINICAL STUDY SPONSOR"
"195","CDISCPILOT01","AE","01-701-1341","AESEQ","2","AETRTEM","TREATMENT EMERGENT FLAG","Y","DERIVED","CLINICAL STUDY SPONSOR"
"196","CDISCPILOT01","AE","01-701-1341","AESEQ","3","AETRTEM","TREATMENT EMERGENT FLAG","Y","DERIVED","CLINICAL STUDY SPONSOR"
"197","CDISCPILOT01","AE","01-701-1341","AESEQ","4","AETRTEM","TREATMENT EMERGENT FLAG","Y","DERIVED","CLINICAL STUDY SPONSOR"
"198","CDISCPILOT01","AE","01-701-1341","AESEQ","5","AETRTEM","TREATMENT EMERGENT FLAG","Y","DERIVED","CLINICAL STUDY SPONSOR"
"199","CDISCPILOT01","AE","01-701-1360","AESEQ","1","AETRTEM","TREATMENT EMERGENT FLAG","Y","DERIVED","CLINICAL STUDY SPONSOR"
"200","CDISCPILOT01","AE","01-701-1360","AESEQ","2","AETRTEM","TREATMENT EMERGENT FLAG","Y","DERIVED","CLINICAL STUDY SPONSOR"
"201","CDISCPILOT01","AE","01-701-1360","AESEQ","3","AETRTEM","TREATMENT EMERGENT FLAG","Y","DERIVED","CLINICAL STUDY SPONSOR"
"202","CDISCPILOT01","AE","01-701-1363","AESEQ","1","AETRTEM","TREATMENT EMERGENT FLAG","Y","DERIVED","CLINICAL STUDY SPONSOR"
"203","CDISCPILOT01","AE","01-701-1363","AESEQ","2","AETRTEM","TREATMENT EMERGENT FLAG","N","DERIVED","CLINICAL STUDY SPONSOR"
"204","CDISCPILOT01","AE","01-701-1363","AESEQ","3","AETRTEM","TREATMENT EMERGENT FLAG","Y","DERIVED","CLINICAL STUDY SPONSOR"
"205","CDISCPILOT01","AE","01-701-1363","AESEQ","4","AETRTEM","TREATMENT EMERGENT FLAG","N","DERIVED","CLINICAL STUDY SPONSOR"
"206","CDISCPILOT01","AE","01-701-1363","AESEQ","5","AETRTEM","TREATMENT EMERGENT FLAG","Y","DERIVED","CLINICAL STUDY SPONSOR"
"207","CDISCPILOT01","AE","01-701-1363","AESEQ","6","AETRTEM","TREATMENT EMERGENT FLAG","Y","DERIVED","CLINICAL STUDY SPONSOR"
"208","CDISCPILOT01","AE","01-701-1383","AESEQ","1","AETRTEM","TREATMENT EMERGENT FLAG","Y","DERIVED","CLINICAL STUDY SPONSOR"
"209","CDISCPILOT01","AE","01-701-1383","AESEQ","10","AETRTEM","TREATMENT EMERGENT FLAG","Y","DERIVED","CLINICAL STUDY SPONSOR"
"210","CDISCPILOT01","AE","01-701-1383","AESEQ","11","AETRTEM","TREATMENT EMERGENT FLAG","Y","DERIVED","CLINICAL STUDY SPONSOR"
"211","CDISCPILOT01","AE","01-701-1383","AESEQ","12","AETRTEM","TREATMENT EMERGENT FLAG","Y","DERIVED","CLINICAL STUDY SPONSOR"
"212","CDISCPILOT01","AE","01-701-1383","AESEQ","2","AETRTEM","TREATMENT EMERGENT FLAG","Y","DERIVED","CLINICAL STUDY SPONSOR"
"213","CDISCPILOT01","AE","01-701-1383","AESEQ","3","AETRTEM","TREATMENT EMERGENT FLAG","Y","DERIVED","CLINICAL STUDY SPONSOR"
"214","CDISCPILOT01","AE","01-701-1383","AESEQ","4","AETRTEM","TREATMENT EMERGENT FLAG","Y","DERIVED","CLINICAL STUDY SPONSOR"
"215","CDISCPILOT01","AE","01-701-1383","AESEQ","5","AETRTEM","TREATMENT EMERGENT FLAG","Y","DERIVED","CLINICAL STUDY SPONSOR"
"216","CDISCPILOT01","AE","01-701-1383","AESEQ","6","AETRTEM","TREATMENT EMERGENT FLAG","Y","DERIVED","CLINICAL STUDY SPONSOR"
"217","CDISCPILOT01","AE","01-701-1383","AESEQ","7","AETRTEM","TREATMENT EMERGENT FLAG","Y","DERIVED","CLINICAL STUDY SPONSOR"
"218","CDISCPILOT01","AE","01-701-1383","AESEQ","8","AETRTEM","TREATMENT EMERGENT FLAG","Y","DERIVED","CLINICAL STUDY SPONSOR"
"219","CDISCPILOT01","AE","01-701-1383","AESEQ","9","AETRTEM","TREATMENT EMERGENT FLAG","Y","DERIVED","CLINICAL STUDY SPONSOR"
"220","CDISCPILOT01","AE","01-701-1387","AESEQ","1","AETRTEM","TREATMENT EMERGENT FLAG","Y","DERIVED","CLINICAL STUDY SPONSOR"
"221","CDISCPILOT01","AE","01-701-1387","AESEQ","2","AETRTEM","TREATMENT EMERGENT FLAG","Y","DERIVED","CLINICAL STUDY SPONSOR"
"222","CDISCPILOT01","AE","01-701-1392","AESEQ","1","AETRTEM","TREATMENT EMERGENT FLAG","Y","DERIVED","CLINICAL STUDY SPONSOR"
"223","CDISCPILOT01","AE","01-701-1392","AESEQ","2","AETRTEM","TREATMENT EMERGENT FLAG","Y","DERIVED","CLINICAL STUDY SPONSOR"
"224","CDISCPILOT01","AE","01-701-1415","AESEQ","1","AETRTEM","TREATMENT EMERGENT FLAG","Y","DERIVED","CLINICAL STUDY SPONSOR"
"225","CDISCPILOT01","AE","01-701-1415","AESEQ","2","AETRTEM","TREATMENT EMERGENT FLAG","Y","DERIVED","CLINICAL STUDY SPONSOR"
"226","CDISCPILOT01","AE","01-701-1415","AESEQ","3","AETRTEM","TREATMENT EMERGENT FLAG","Y","DERIVED","CLINICAL STUDY SPONSOR"
"227","CDISCPILOT01","AE","01-701-1415","AESEQ","4","AETRTEM","TREATMENT EMERGENT FLAG","Y","DERIVED","CLINICAL STUDY SPONSOR"
"228","CDISCPILOT01","AE","01-701-1415","AESEQ","5","AETRTEM","TREATMENT EMERGENT FLAG","Y","DERIVED","CLINICAL STUDY SPONSOR"
"229","CDISCPILOT01","AE","01-701-1415","AESEQ","6","AETRTEM","TREATMENT EMERGENT FLAG","Y","DERIVED","CLINICAL STUDY SPONSOR"
"230","CDISCPILOT01","AE","01-701-1442","AESEQ","1","AETRTEM","TREATMENT EMERGENT FLAG","Y","DERIVED","CLINICAL STUDY SPONSOR"
"231","CDISCPILOT01","AE","01-701-1444","AESEQ","1","AETRTEM","TREATMENT EMERGENT FLAG","Y","DERIVED","CLINICAL STUDY SPONSOR"
"232","CDISCPILOT01","AE","01-701-1444","AESEQ","2","AETRTEM","TREATMENT EMERGENT FLAG","Y","DERIVED","CLINICAL STUDY SPONSOR"
"233","CDISCPILOT01","AE","01-701-1444","AESEQ","3","AETRTEM","TREATMENT EMERGENT FLAG","Y","DERIVED","CLINICAL STUDY SPONSOR"
"234","CDISCPILOT01","AE","01-701-1444","AESEQ","4","AETRTEM","TREATMENT EMERGENT FLAG","Y","DERIVED","CLINICAL STUDY SPONSOR"
"235","CDISCPILOT01","AE","01-701-1444","AESEQ","5","AETRTEM","TREATMENT EMERGENT FLAG","Y","DERIVED","CLINICAL STUDY SPONSOR"
"236","CDISCPILOT01","AE","01-701-1444","AESEQ","6","AETRTEM","TREATMENT EMERGENT FLAG","Y","DERIVED","CLINICAL STUDY SPONSOR"
"237","CDISCPILOT01","AE","01-701-1444","AESEQ","7","AETRTEM","TREATMENT EMERGENT FLAG","Y","DERIVED","CLINICAL STUDY SPONSOR"
"238","CDISCPILOT01","AE","01-701-1444","AESEQ","8","AETRTEM","TREATMENT EMERGENT FLAG","Y","DERIVED","CLINICAL STUDY SPONSOR"
"239","CDISCPILOT01","AE","01-702-1082","AESEQ","1","AETRTEM","TREATMENT EMERGENT FLAG","N","DERIVED","CLINICAL STUDY SPONSOR"
"240","CDISCPILOT01","AE","01-702-1082","AESEQ","10","AETRTEM","TREATMENT EMERGENT FLAG","Y","DERIVED","CLINICAL STUDY SPONSOR"
"241","CDISCPILOT01","AE","01-702-1082","AESEQ","2","AETRTEM","TREATMENT EMERGENT FLAG","N","DERIVED","CLINICAL STUDY SPONSOR"
"242","CDISCPILOT01","AE","01-702-1082","AESEQ","3","AETRTEM","TREATMENT EMERGENT FLAG","N","DERIVED","CLINICAL STUDY SPONSOR"
"243","CDISCPILOT01","AE","01-702-1082","AESEQ","4","AETRTEM","TREATMENT EMERGENT FLAG","N","DERIVED","CLINICAL STUDY SPONSOR"
"244","CDISCPILOT01","AE","01-702-1082","AESEQ","5","AETRTEM","TREATMENT EMERGENT FLAG","N","DERIVED","CLINICAL STUDY SPONSOR"
"245","CDISCPILOT01","AE","01-702-1082","AESEQ","6","AETRTEM","TREATMENT EMERGENT FLAG","N","DERIVED","CLINICAL STUDY SPONSOR"
"246","CDISCPILOT01","AE","01-702-1082","AESEQ","7","AETRTEM","TREATMENT EMERGENT FLAG","Y","DERIVED","CLINICAL STUDY SPONSOR"
"247","CDISCPILOT01","AE","01-702-1082","AESEQ","8","AETRTEM","TREATMENT EMERGENT FLAG","Y","DERIVED","CLINICAL STUDY SPONSOR"
"248","CDISCPILOT01","AE","01-702-1082","AESEQ","9","AETRTEM","TREATMENT EMERGENT FLAG","Y","DERIVED","CLINICAL STUDY SPONSOR"
"249","CDISCPILOT01","AE","01-703-1042","AESEQ","1","AETRTEM","TREATMENT EMERGENT FLAG","Y","DERIVED","CLINICAL STUDY SPONSOR"
"250","CDISCPILOT01","AE","01-703-1042","AESEQ","2","AETRTEM","TREATMENT EMERGENT FLAG","Y","DERIVED","CLINICAL STUDY SPONSOR"
"251","CDISCPILOT01","AE","01-703-1076","AESEQ","1","AETRTEM","TREATMENT EMERGENT FLAG","Y","DERIVED","CLINICAL STUDY SPONSOR"
"252","CDISCPILOT01","AE","01-703-1076","AESEQ","2","AETRTEM","TREATMENT EMERGENT FLAG","Y","DERIVED","CLINICAL STUDY SPONSOR"
"253","CDISCPILOT01","AE","01-703-1076","AESEQ","3","AETRTEM","TREATMENT EMERGENT FLAG","N","DERIVED","CLINICAL STUDY SPONSOR"
"254","CDISCPILOT01","AE","01-703-1076","AESEQ","4","AETRTEM","TREATMENT EMERGENT FLAG","Y","DERIVED","CLINICAL STUDY SPONSOR"
"255","CDISCPILOT01","AE","01-703-1076","AESEQ","5","AETRTEM","TREATMENT EMERGENT FLAG","Y","DERIVED","CLINICAL STUDY SPONSOR"
"256","CDISCPILOT01","AE","01-703-1076","AESEQ","6","AETRTEM","TREATMENT EMERGENT FLAG","Y","DERIVED","CLINICAL STUDY SPONSOR"
"257","CDISCPILOT01","AE","01-703-1076","AESEQ","7","AETRTEM","TREATMENT EMERGENT FLAG","Y","DERIVED","CLINICAL STUDY SPONSOR"
"258","CDISCPILOT01","AE","01-703-1086","AESEQ","1","AETRTEM","TREATMENT EMERGENT FLAG","Y","DERIVED","CLINICAL STUDY SPONSOR"
"259","CDISCPILOT01","AE","01-703-1086","AESEQ","2","AETRTEM","TREATMENT EMERGENT FLAG","Y","DERIVED","CLINICAL STUDY SPONSOR"
"260","CDISCPILOT01","AE","01-703-1086","AESEQ","3","AETRTEM","TREATMENT EMERGENT FLAG","Y","DERIVED","CLINICAL STUDY SPONSOR"
"261","CDISCPILOT01","AE","01-703-1086","AESEQ","4","AETRTEM","TREATMENT EMERGENT FLAG","Y","DERIVED","CLINICAL STUDY SPONSOR"
"262","CDISCPILOT01","AE","01-703-1086","AESEQ","5","AETRTEM","TREATMENT EMERGENT FLAG","Y","DERIVED","CLINICAL STUDY SPONSOR"
"263","CDISCPILOT01","AE","01-703-1086","AESEQ","6","AETRTEM","TREATMENT EMERGENT FLAG","Y","DERIVED","CLINICAL STUDY SPONSOR"
"264","CDISCPILOT01","AE","01-703-1100","AESEQ","1","AETRTEM","TREATMENT EMERGENT FLAG","Y","DERIVED","CLINICAL STUDY SPONSOR"
"265","CDISCPILOT01","AE","01-703-1100","AESEQ","2","AETRTEM","TREATMENT EMERGENT FLAG","Y","DERIVED","CLINICAL STUDY SPONSOR"
"266","CDISCPILOT01","AE","01-703-1100","AESEQ","3","AETRTEM","TREATMENT EMERGENT FLAG","Y","DERIVED","CLINICAL STUDY SPONSOR"
"267","CDISCPILOT01","AE","01-703-1100","AESEQ","4","AETRTEM","TREATMENT EMERGENT FLAG","Y","DERIVED","CLINICAL STUDY SPONSOR"
"268","CDISCPILOT01","AE","01-703-1100","AESEQ","5","AETRTEM","TREATMENT EMERGENT FLAG","Y","DERIVED","CLINICAL STUDY SPONSOR"
"269","CDISCPILOT01","AE","01-703-1100","AESEQ","6","AETRTEM","TREATMENT EMERGENT FLAG","N","DERIVED","CLINICAL STUDY SPONSOR"
"270","CDISCPILOT01","AE","01-703-1100","AESEQ","7","AETRTEM","TREATMENT EMERGENT FLAG","Y","DERIVED","CLINICAL STUDY SPONSOR"
"271","CDISCPILOT01","AE","01-703-1100","AESEQ","8","AETRTEM","TREATMENT EMERGENT FLAG","N","DERIVED","CLINICAL STUDY SPONSOR"
"272","CDISCPILOT01","AE","01-703-1100","AESEQ","9","AETRTEM","TREATMENT EMERGENT FLAG","Y","DERIVED","CLINICAL STUDY SPONSOR"
"273","CDISCPILOT01","AE","01-703-1119","AESEQ","1","AETRTEM","TREATMENT EMERGENT FLAG","Y","DERIVED","CLINICAL STUDY SPONSOR"
"274","CDISCPILOT01","AE","01-703-1119","AESEQ","2","AETRTEM","TREATMENT EMERGENT FLAG","Y","DERIVED","CLINICAL STUDY SPONSOR"
"275","CDISCPILOT01","AE","01-703-1119","AESEQ","3","AETRTEM","TREATMENT EMERGENT FLAG","Y","DERIVED","CLINICAL STUDY SPONSOR"
"276","CDISCPILOT01","AE","01-703-1119","AESEQ","4","AETRTEM","TREATMENT EMERGENT FLAG","Y","DERIVED","CLINICAL STUDY SPONSOR"
"277","CDISCPILOT01","AE","01-703-1175","AESEQ","1","AETRTEM","TREATMENT EMERGENT FLAG","N","DERIVED","CLINICAL STUDY SPONSOR"
"278","CDISCPILOT01","AE","01-703-1182","AESEQ","1","AETRTEM","TREATMENT EMERGENT FLAG","Y","DERIVED","CLINICAL STUDY SPONSOR"
"279","CDISCPILOT01","AE","01-703-1182","AESEQ","2","AETRTEM","TREATMENT EMERGENT FLAG","Y","DERIVED","CLINICAL STUDY SPONSOR"
"280","CDISCPILOT01","AE","01-703-1182","AESEQ","3","AETRTEM","TREATMENT EMERGENT FLAG","Y","DERIVED","CLINICAL STUDY SPONSOR"
"281","CDISCPILOT01","AE","01-703-1182","AESEQ","4","AETRTEM","TREATMENT EMERGENT FLAG","Y","DERIVED","CLINICAL STUDY SPONSOR"
"282","CDISCPILOT01","AE","01-703-1210","AESEQ","1","AETRTEM","TREATMENT EMERGENT FLAG","Y","DERIVED","CLINICAL STUDY SPONSOR"
"283","CDISCPILOT01","AE","01-703-1210","AESEQ","2","AETRTEM","TREATMENT EMERGENT FLAG","Y","DERIVED","CLINICAL STUDY SPONSOR"
"284","CDISCPILOT01","AE","01-703-1210","AESEQ","3","AETRTEM","TREATMENT EMERGENT FLAG","Y","DERIVED","CLINICAL STUDY SPONSOR"
"285","CDISCPILOT01","AE","01-703-1258","AESEQ","1","AETRTEM","TREATMENT EMERGENT FLAG","Y","DERIVED","CLINICAL STUDY SPONSOR"
"286","CDISCPILOT01","AE","01-703-1258","AESEQ","2","AETRTEM","TREATMENT EMERGENT FLAG","N","DERIVED","CLINICAL STUDY SPONSOR"
"287","CDISCPILOT01","AE","01-703-1258","AESEQ","3","AETRTEM","TREATMENT EMERGENT FLAG","Y","DERIVED","CLINICAL STUDY SPONSOR"
"288","CDISCPILOT01","AE","01-703-1258","AESEQ","4","AETRTEM","TREATMENT EMERGENT FLAG","Y","DERIVED","CLINICAL STUDY SPONSOR"
"289","CDISCPILOT01","AE","01-703-1258","AESEQ","5","AETRTEM","TREATMENT EMERGENT FLAG","N","DERIVED","CLINICAL STUDY SPONSOR"
"290","CDISCPILOT01","AE","01-703-1258","AESEQ","6","AETRTEM","TREATMENT EMERGENT FLAG","Y","DERIVED","CLINICAL STUDY SPONSOR"
"291","CDISCPILOT01","AE","01-703-1258","AESEQ","7","AETRTEM","TREATMENT EMERGENT FLAG","Y","DERIVED","CLINICAL STUDY SPONSOR"
"292","CDISCPILOT01","AE","01-703-1295","AESEQ","1","AETRTEM","TREATMENT EMERGENT FLAG","Y","DERIVED","CLINICAL STUDY SPONSOR"
"293","CDISCPILOT01","AE","01-703-1299","AESEQ","1","AETRTEM","TREATMENT EMERGENT FLAG","Y","DERIVED","CLINICAL STUDY SPONSOR"
"294","CDISCPILOT01","AE","01-703-1299","AESEQ","2","AETRTEM","TREATMENT EMERGENT FLAG","Y","DERIVED","CLINICAL STUDY SPONSOR"
"295","CDISCPILOT01","AE","01-703-1299","AESEQ","3","AETRTEM","TREATMENT EMERGENT FLAG","N","DERIVED","CLINICAL STUDY SPONSOR"
"296","CDISCPILOT01","AE","01-703-1299","AESEQ","4","AETRTEM","TREATMENT EMERGENT FLAG","Y","DERIVED","CLINICAL STUDY SPONSOR"
"297","CDISCPILOT01","AE","01-703-1299","AESEQ","5","AETRTEM","TREATMENT EMERGENT FLAG","Y","DERIVED","CLINICAL STUDY SPONSOR"
"298","CDISCPILOT01","AE","01-703-1299","AESEQ","6","AETRTEM","TREATMENT EMERGENT FLAG","Y","DERIVED","CLINICAL STUDY SPONSOR"
"299","CDISCPILOT01","AE","01-703-1299","AESEQ","7","AETRTEM","TREATMENT EMERGENT FLAG","Y","DERIVED","CLINICAL STUDY SPONSOR"
"300","CDISCPILOT01","AE","01-703-1299","AESEQ","8","AETRTEM","TREATMENT EMERGENT FLAG","Y","DERIVED","CLINICAL STUDY SPONSOR"
"301","CDISCPILOT01","AE","01-703-1335","AESEQ","1","AETRTEM","TREATMENT EMERGENT FLAG","N","DERIVED","CLINICAL STUDY SPONSOR"
"302","CDISCPILOT01","AE","01-703-1335","AESEQ","2","AETRTEM","TREATMENT EMERGENT FLAG","N","DERIVED","CLINICAL STUDY SPONSOR"
"303","CDISCPILOT01","AE","01-703-1403","AESEQ","1","AETRTEM","TREATMENT EMERGENT FLAG","Y","DERIVED","CLINICAL STUDY SPONSOR"
"304","CDISCPILOT01","AE","01-703-1403","AESEQ","2","AETRTEM","TREATMENT EMERGENT FLAG","Y","DERIVED","CLINICAL STUDY SPONSOR"
"305","CDISCPILOT01","AE","01-703-1403","AESEQ","3","AETRTEM","TREATMENT EMERGENT FLAG","Y","DERIVED","CLINICAL STUDY SPONSOR"
"306","CDISCPILOT01","AE","01-703-1403","AESEQ","4","AETRTEM","TREATMENT EMERGENT FLAG","Y","DERIVED","CLINICAL STUDY SPONSOR"
"307","CDISCPILOT01","AE","01-703-1403","AESEQ","5","AETRTEM","TREATMENT EMERGENT FLAG","Y","DERIVED","CLINICAL STUDY SPONSOR"
"308","CDISCPILOT01","AE","01-703-1439","AESEQ","1","AETRTEM","TREATMENT EMERGENT FLAG","Y","DERIVED","CLINICAL STUDY SPONSOR"
"309","CDISCPILOT01","AE","01-703-1439","AESEQ","2","AETRTEM","TREATMENT EMERGENT FLAG","Y","DERIVED","CLINICAL STUDY SPONSOR"
"310","CDISCPILOT01","AE","01-704-1008","AESEQ","1","AETRTEM","TREATMENT EMERGENT FLAG","Y","DERIVED","CLINICAL STUDY SPONSOR"
"311","CDISCPILOT01","AE","01-704-1008","AESEQ","2","AETRTEM","TREATMENT EMERGENT FLAG","Y","DERIVED","CLINICAL STUDY SPONSOR"
"312","CDISCPILOT01","AE","01-704-1008","AESEQ","3","AETRTEM","TREATMENT EMERGENT FLAG","Y","DERIVED","CLINICAL STUDY SPONSOR"
"313","CDISCPILOT01","AE","01-704-1009","AESEQ","1","AETRTEM","TREATMENT EMERGENT FLAG","Y","DERIVED","CLINICAL STUDY SPONSOR"
"314","CDISCPILOT01","AE","01-704-1009","AESEQ","2","AETRTEM","TREATMENT EMERGENT FLAG","Y","DERIVED","CLINICAL STUDY SPONSOR"
"315","CDISCPILOT01","AE","01-704-1009","AESEQ","3","AETRTEM","TREATMENT EMERGENT FLAG","Y","DERIVED","CLINICAL STUDY SPONSOR"
"316","CDISCPILOT01","AE","01-704-1009","AESEQ","4","AETRTEM","TREATMENT EMERGENT FLAG","Y","DERIVED","CLINICAL STUDY SPONSOR"
"317","CDISCPILOT01","AE","01-704-1009","AESEQ","5","AETRTEM","TREATMENT EMERGENT FLAG","Y","DERIVED","CLINICAL STUDY SPONSOR"
"318","CDISCPILOT01","AE","01-704-1009","AESEQ","6","AETRTEM","TREATMENT EMERGENT FLAG","Y","DERIVED","CLINICAL STUDY SPONSOR"
"319","CDISCPILOT01","AE","01-704-1010","AESEQ","1","AETRTEM","TREATMENT EMERGENT FLAG","Y","DERIVED","CLINICAL STUDY SPONSOR"
"320","CDISCPILOT01","AE","01-704-1010","AESEQ","2","AETRTEM","TREATMENT EMERGENT FLAG","Y","DERIVED","CLINICAL STUDY SPONSOR"
"321","CDISCPILOT01","AE","01-704-1010","AESEQ","3","AETRTEM","TREATMENT EMERGENT FLAG","Y","DERIVED","CLINICAL STUDY SPONSOR"
"322","CDISCPILOT01","AE","01-704-1010","AESEQ","4","AETRTEM","TREATMENT EMERGENT FLAG","Y","DERIVED","CLINICAL STUDY SPONSOR"
"323","CDISCPILOT01","AE","01-704-1010","AESEQ","5","AETRTEM","TREATMENT EMERGENT FLAG","Y","DERIVED","CLINICAL STUDY SPONSOR"
"324","CDISCPILOT01","AE","01-704-1010","AESEQ","6","AETRTEM","TREATMENT EMERGENT FLAG","Y","DERIVED","CLINICAL STUDY SPONSOR"
"325","CDISCPILOT01","AE","01-704-1010","AESEQ","7","AETRTEM","TREATMENT EMERGENT FLAG","Y","DERIVED","CLINICAL STUDY SPONSOR"
"326","CDISCPILOT01","AE","01-704-1017","AESEQ","1","AETRTEM","TREATMENT EMERGENT FLAG","Y","DERIVED","CLINICAL STUDY SPONSOR"
"327","CDISCPILOT01","AE","01-704-1017","AESEQ","2","AETRTEM","TREATMENT EMERGENT FLAG","Y","DERIVED","CLINICAL STUDY SPONSOR"
"328","CDISCPILOT01","AE","01-704-1017","AESEQ","3","AETRTEM","TREATMENT EMERGENT FLAG","Y","DERIVED","CLINICAL STUDY SPONSOR"
"329","CDISCPILOT01","AE","01-704-1017","AESEQ","4","AETRTEM","TREATMENT EMERGENT FLAG","Y","DERIVED","CLINICAL STUDY SPONSOR"
"330","CDISCPILOT01","AE","01-704-1017","AESEQ","5","AETRTEM","TREATMENT EMERGENT FLAG","Y","DERIVED","CLINICAL STUDY SPONSOR"
"331","CDISCPILOT01","AE","01-704-1017","AESEQ","6","AETRTEM","TREATMENT EMERGENT FLAG","Y","DERIVED","CLINICAL STUDY SPONSOR"
"332","CDISCPILOT01","AE","01-704-1017","AESEQ","7","AETRTEM","TREATMENT EMERGENT FLAG","Y","DERIVED","CLINICAL STUDY SPONSOR"
"333","CDISCPILOT01","AE","01-704-1017","AESEQ","8","AETRTEM","TREATMENT EMERGENT FLAG","Y","DERIVED","CLINICAL STUDY SPONSOR"
"334","CDISCPILOT01","AE","01-704-1025","AESEQ","1","AETRTEM","TREATMENT EMERGENT FLAG","Y","DERIVED","CLINICAL STUDY SPONSOR"
"335","CDISCPILOT01","AE","01-704-1025","AESEQ","2","AETRTEM","TREATMENT EMERGENT FLAG","Y","DERIVED","CLINICAL STUDY SPONSOR"
"336","CDISCPILOT01","AE","01-704-1025","AESEQ","3","AETRTEM","TREATMENT EMERGENT FLAG","Y","DERIVED","CLINICAL STUDY SPONSOR"
"337","CDISCPILOT01","AE","01-704-1025","AESEQ","4","AETRTEM","TREATMENT EMERGENT FLAG","Y","DERIVED","CLINICAL STUDY SPONSOR"
"338","CDISCPILOT01","AE","01-704-1025","AESEQ","5","AETRTEM","TREATMENT EMERGENT FLAG","Y","DERIVED","CLINICAL STUDY SPONSOR"
"339","CDISCPILOT01","AE","01-704-1025","AESEQ","6","AETRTEM","TREATMENT EMERGENT FLAG","Y","DERIVED","CLINICAL STUDY SPONSOR"
"340","CDISCPILOT01","AE","01-704-1065","AESEQ","1","AETRTEM","TREATMENT EMERGENT FLAG","Y","DERIVED","CLINICAL STUDY SPONSOR"
"341","CDISCPILOT01","AE","01-704-1065","AESEQ","10","AETRTEM","TREATMENT EMERGENT FLAG","Y","DERIVED","CLINICAL STUDY SPONSOR"
"342","CDISCPILOT01","AE","01-704-1065","AESEQ","2","AETRTEM","TREATMENT EMERGENT FLAG","Y","DERIVED","CLINICAL STUDY SPONSOR"
"343","CDISCPILOT01","AE","01-704-1065","AESEQ","3","AETRTEM","TREATMENT EMERGENT FLAG","Y","DERIVED","CLINICAL STUDY SPONSOR"
"344","CDISCPILOT01","AE","01-704-1065","AESEQ","4","AETRTEM","TREATMENT EMERGENT FLAG","Y","DERIVED","CLINICAL STUDY SPONSOR"
"345","CDISCPILOT01","AE","01-704-1065","AESEQ","5","AETRTEM","TREATMENT EMERGENT FLAG","Y","DERIVED","CLINICAL STUDY SPONSOR"
"346","CDISCPILOT01","AE","01-704-1065","AESEQ","6","AETRTEM","TREATMENT EMERGENT FLAG","Y","DERIVED","CLINICAL STUDY SPONSOR"
"347","CDISCPILOT01","AE","01-704-1065","AESEQ","7","AETRTEM","TREATMENT EMERGENT FLAG","Y","DERIVED","CLINICAL STUDY SPONSOR"
"348","CDISCPILOT01","AE","01-704-1065","AESEQ","8","AETRTEM","TREATMENT EMERGENT FLAG","Y","DERIVED","CLINICAL STUDY SPONSOR"
"349","CDISCPILOT01","AE","01-704-1065","AESEQ","9","AETRTEM","TREATMENT EMERGENT FLAG","Y","DERIVED","CLINICAL STUDY SPONSOR"
"350","CDISCPILOT01","AE","01-704-1074","AESEQ","1","AETRTEM","TREATMENT EMERGENT FLAG","Y","DERIVED","CLINICAL STUDY SPONSOR"
"351","CDISCPILOT01","AE","01-704-1074","AESEQ","2","AETRTEM","TREATMENT EMERGENT FLAG","Y","DERIVED","CLINICAL STUDY SPONSOR"
"352","CDISCPILOT01","AE","01-704-1093","AESEQ","1","AETRTEM","TREATMENT EMERGENT FLAG","Y","DERIVED","CLINICAL STUDY SPONSOR"
"353","CDISCPILOT01","AE","01-704-1093","AESEQ","2","AETRTEM","TREATMENT EMERGENT FLAG","Y","DERIVED","CLINICAL STUDY SPONSOR"
"354","CDISCPILOT01","AE","01-704-1093","AESEQ","3","AETRTEM","TREATMENT EMERGENT FLAG","Y","DERIVED","CLINICAL STUDY SPONSOR"
"355","CDISCPILOT01","AE","01-704-1093","AESEQ","4","AETRTEM","TREATMENT EMERGENT FLAG","Y","DERIVED","CLINICAL STUDY SPONSOR"
"356","CDISCPILOT01","AE","01-704-1114","AESEQ","1","AETRTEM","TREATMENT EMERGENT FLAG","Y","DERIVED","CLINICAL STUDY SPONSOR"
"357","CDISCPILOT01","AE","01-704-1114","AESEQ","2","AETRTEM","TREATMENT EMERGENT FLAG","Y","DERIVED","CLINICAL STUDY SPONSOR"
"358","CDISCPILOT01","AE","01-704-1114","AESEQ","3","AETRTEM","TREATMENT EMERGENT FLAG","Y","DERIVED","CLINICAL STUDY SPONSOR"
"359","CDISCPILOT01","AE","01-704-1114","AESEQ","4","AETRTEM","TREATMENT EMERGENT FLAG","Y","DERIVED","CLINICAL STUDY SPONSOR"
"360","CDISCPILOT01","AE","01-704-1114","AESEQ","5","AETRTEM","TREATMENT EMERGENT FLAG","Y","DERIVED","CLINICAL STUDY SPONSOR"
"361","CDISCPILOT01","AE","01-704-1120","AESEQ","1","AETRTEM","TREATMENT EMERGENT FLAG","Y","DERIVED","CLINICAL STUDY SPONSOR"
"362","CDISCPILOT01","AE","01-704-1120","AESEQ","2","AETRTEM","TREATMENT EMERGENT FLAG","Y","DERIVED","CLINICAL STUDY SPONSOR"
"363","CDISCPILOT01","AE","01-704-1120","AESEQ","3","AETRTEM","TREATMENT EMERGENT FLAG","Y","DERIVED","CLINICAL STUDY SPONSOR"
"364","CDISCPILOT01","AE","01-704-1120","AESEQ","4","AETRTEM","TREATMENT EMERGENT FLAG","Y","DERIVED","CLINICAL STUDY SPONSOR"
"365","CDISCPILOT01","AE","01-704-1120","AESEQ","5","AETRTEM","TREATMENT EMERGENT FLAG","Y","DERIVED","CLINICAL STUDY SPONSOR"
"366","CDISCPILOT01","AE","01-704-1120","AESEQ","6","AETRTEM","TREATMENT EMERGENT FLAG","Y","DERIVED","CLINICAL STUDY SPONSOR"
"367","CDISCPILOT01","AE","01-704-1135","AESEQ","1","AETRTEM","TREATMENT EMERGENT FLAG","Y","DERIVED","CLINICAL STUDY SPONSOR"
"368","CDISCPILOT01","AE","01-704-1135","AESEQ","2","AETRTEM","TREATMENT EMERGENT FLAG","Y","DERIVED","CLINICAL STUDY SPONSOR"
"369","CDISCPILOT01","AE","01-704-1164","AESEQ","1","AETRTEM","TREATMENT EMERGENT FLAG","Y","DERIVED","CLINICAL STUDY SPONSOR"
"370","CDISCPILOT01","AE","01-704-1164","AESEQ","2","AETRTEM","TREATMENT EMERGENT FLAG","Y","DERIVED","CLINICAL STUDY SPONSOR"
"371","CDISCPILOT01","AE","01-704-1164","AESEQ","3","AETRTEM","TREATMENT EMERGENT FLAG","Y","DERIVED","CLINICAL STUDY SPONSOR"
"372","CDISCPILOT01","AE","01-704-1218","AESEQ","1","AETRTEM","TREATMENT EMERGENT FLAG","Y","DERIVED","CLINICAL STUDY SPONSOR"
"373","CDISCPILOT01","AE","01-704-1241","AESEQ","1","AETRTEM","TREATMENT EMERGENT FLAG","N","DERIVED","CLINICAL STUDY SPONSOR"
"374","CDISCPILOT01","AE","01-704-1241","AESEQ","2","AETRTEM","TREATMENT EMERGENT FLAG","Y","DERIVED","CLINICAL STUDY SPONSOR"
"375","CDISCPILOT01","AE","01-704-1266","AESEQ","1","AETRTEM","TREATMENT EMERGENT FLAG","N","DERIVED","CLINICAL STUDY SPONSOR"
"376","CDISCPILOT01","AE","01-704-1266","AESEQ","10","AETRTEM","TREATMENT EMERGENT FLAG","Y","DERIVED","CLINICAL STUDY SPONSOR"
"377","CDISCPILOT01","AE","01-704-1266","AESEQ","11","AETRTEM","TREATMENT EMERGENT FLAG","Y","DERIVED","CLINICAL STUDY SPONSOR"
"378","CDISCPILOT01","AE","01-704-1266","AESEQ","12","AETRTEM","TREATMENT EMERGENT FLAG","Y","DERIVED","CLINICAL STUDY SPONSOR"
"379","CDISCPILOT01","AE","01-704-1266","AESEQ","13","AETRTEM","TREATMENT EMERGENT FLAG","Y","DERIVED","CLINICAL STUDY SPONSOR"
"380","CDISCPILOT01","AE","01-704-1266","AESEQ","14","AETRTEM","TREATMENT EMERGENT FLAG","Y","DERIVED","CLINICAL STUDY SPONSOR"
"381","CDISCPILOT01","AE","01-704-1266","AESEQ","15","AETRTEM","TREATMENT EMERGENT FLAG","Y","DERIVED","CLINICAL STUDY SPONSOR"
"382","CDISCPILOT01","AE","01-704-1266","AESEQ","16","AETRTEM","TREATMENT EMERGENT FLAG","Y","DERIVED","CLINICAL STUDY SPONSOR"
"383","CDISCPILOT01","AE","01-704-1266","AESEQ","2","AETRTEM","TREATMENT EMERGENT FLAG","Y","DERIVED","CLINICAL STUDY SPONSOR"
"384","CDISCPILOT01","AE","01-704-1266","AESEQ","3","AETRTEM","TREATMENT EMERGENT FLAG","Y","DERIVED","CLINICAL STUDY SPONSOR"
"385","CDISCPILOT01","AE","01-704-1266","AESEQ","4","AETRTEM","TREATMENT EMERGENT FLAG","Y","DERIVED","CLINICAL STUDY SPONSOR"
"386","CDISCPILOT01","AE","01-704-1266","AESEQ","5","AETRTEM","TREATMENT EMERGENT FLAG","Y","DERIVED","CLINICAL STUDY SPONSOR"
"387","CDISCPILOT01","AE","01-704-1266","AESEQ","6","AETRTEM","TREATMENT EMERGENT FLAG","Y","DERIVED","CLINICAL STUDY SPONSOR"
"388","CDISCPILOT01","AE","01-704-1266","AESEQ","7","AETRTEM","TREATMENT EMERGENT FLAG","Y","DERIVED","CLINICAL STUDY SPONSOR"
"389","CDISCPILOT01","AE","01-704-1266","AESEQ","8","AETRTEM","TREATMENT EMERGENT FLAG","Y","DERIVED","CLINICAL STUDY SPONSOR"
"390","CDISCPILOT01","AE","01-704-1266","AESEQ","9","AETRTEM","TREATMENT EMERGENT FLAG","Y","DERIVED","CLINICAL STUDY SPONSOR"
"391","CDISCPILOT01","AE","01-704-1323","AESEQ","1","AETRTEM","TREATMENT EMERGENT FLAG","Y","DERIVED","CLINICAL STUDY SPONSOR"
"392","CDISCPILOT01","AE","01-704-1323","AESEQ","2","AETRTEM","TREATMENT EMERGENT FLAG","Y","DERIVED","CLINICAL STUDY SPONSOR"
"393","CDISCPILOT01","AE","01-704-1323","AESEQ","3","AETRTEM","TREATMENT EMERGENT FLAG","Y","DERIVED","CLINICAL STUDY SPONSOR"
"394","CDISCPILOT01","AE","01-704-1323","AESEQ","4","AETRTEM","TREATMENT EMERGENT FLAG","Y","DERIVED","CLINICAL STUDY SPONSOR"
"395","CDISCPILOT01","AE","01-704-1325","AESEQ","1","AETRTEM","TREATMENT EMERGENT FLAG","Y","DERIVED","CLINICAL STUDY SPONSOR"
"396","CDISCPILOT01","AE","01-704-1325","AESEQ","2","AETRTEM","TREATMENT EMERGENT FLAG","Y","DERIVED","CLINICAL STUDY SPONSOR"
"397","CDISCPILOT01","AE","01-704-1332","AESEQ","1","AETRTEM","TREATMENT EMERGENT FLAG","Y","DERIVED","CLINICAL STUDY SPONSOR"
"398","CDISCPILOT01","AE","01-704-1332","AESEQ","2","AETRTEM","TREATMENT EMERGENT FLAG","Y","DERIVED","CLINICAL STUDY SPONSOR"
"399","CDISCPILOT01","AE","01-704-1332","AESEQ","3","AETRTEM","TREATMENT EMERGENT FLAG","Y","DERIVED","CLINICAL STUDY SPONSOR"
"400","CDISCPILOT01","AE","01-704-1332","AESEQ","4","AETRTEM","TREATMENT EMERGENT FLAG","Y","DERIVED","CLINICAL STUDY SPONSOR"
"401","CDISCPILOT01","AE","01-704-1332","AESEQ","5","AETRTEM","TREATMENT EMERGENT FLAG","Y","DERIVED","CLINICAL STUDY SPONSOR"
"402","CDISCPILOT01","AE","01-704-1332","AESEQ","6","AETRTEM","TREATMENT EMERGENT FLAG","Y","DERIVED","CLINICAL STUDY SPONSOR"
"403","CDISCPILOT01","AE","01-704-1351","AESEQ","1","AETRTEM","TREATMENT EMERGENT FLAG","Y","DERIVED","CLINICAL STUDY SPONSOR"
"404","CDISCPILOT01","AE","01-704-1351","AESEQ","2","AETRTEM","TREATMENT EMERGENT FLAG","Y","DERIVED","CLINICAL STUDY SPONSOR"
"405","CDISCPILOT01","AE","01-704-1351","AESEQ","3","AETRTEM","TREATMENT EMERGENT FLAG","Y","DERIVED","CLINICAL STUDY SPONSOR"
"406","CDISCPILOT01","AE","01-704-1351","AESEQ","4","AETRTEM","TREATMENT EMERGENT FLAG","Y","DERIVED","CLINICAL STUDY SPONSOR"
"407","CDISCPILOT01","AE","01-704-1388","AESEQ","1","AETRTEM","TREATMENT EMERGENT FLAG","N","DERIVED","CLINICAL STUDY SPONSOR"
"408","CDISCPILOT01","AE","01-704-1435","AESEQ","1","AETRTEM","TREATMENT EMERGENT FLAG","Y","DERIVED","CLINICAL STUDY SPONSOR"
"409","CDISCPILOT01","AE","01-704-1445","AESEQ","1","AETRTEM","TREATMENT EMERGENT FLAG","Y","DERIVED","CLINICAL STUDY SPONSOR"
"410","CDISCPILOT01","AE","01-705-1031","AESEQ","1","AETRTEM","TREATMENT EMERGENT FLAG","Y","DERIVED","CLINICAL STUDY SPONSOR"
"411","CDISCPILOT01","AE","01-705-1059","AESEQ","1","AETRTEM","TREATMENT EMERGENT FLAG","Y","DERIVED","CLINICAL STUDY SPONSOR"
"412","CDISCPILOT01","AE","01-705-1186","AESEQ","1","AETRTEM","TREATMENT EMERGENT FLAG","Y","DERIVED","CLINICAL STUDY SPONSOR"
"413","CDISCPILOT01","AE","01-705-1199","AESEQ","1","AETRTEM","TREATMENT EMERGENT FLAG","Y","DERIVED","CLINICAL STUDY SPONSOR"
"414","CDISCPILOT01","AE","01-705-1199","AESEQ","2","AETRTEM","TREATMENT EMERGENT FLAG","Y","DERIVED","CLINICAL STUDY SPONSOR"
"415","CDISCPILOT01","AE","01-705-1280","AESEQ","1","AETRTEM","TREATMENT EMERGENT FLAG","Y","DERIVED","CLINICAL STUDY SPONSOR"
"416","CDISCPILOT01","AE","01-705-1281","AESEQ","1","AETRTEM","TREATMENT EMERGENT FLAG","Y","DERIVED","CLINICAL STUDY SPONSOR"
"417","CDISCPILOT01","AE","01-705-1281","AESEQ","2","AETRTEM","TREATMENT EMERGENT FLAG","Y","DERIVED","CLINICAL STUDY SPONSOR"
"418","CDISCPILOT01","AE","01-705-1281","AESEQ","3","AETRTEM","TREATMENT EMERGENT FLAG","Y","DERIVED","CLINICAL STUDY SPONSOR"
"419","CDISCPILOT01","AE","01-705-1292","AESEQ","1","AETRTEM","TREATMENT EMERGENT FLAG","Y","DERIVED","CLINICAL STUDY SPONSOR"
"420","CDISCPILOT01","AE","01-705-1292","AESEQ","2","AETRTEM","TREATMENT EMERGENT FLAG","Y","DERIVED","CLINICAL STUDY SPONSOR"
"421","CDISCPILOT01","AE","01-705-1303","AESEQ","1","AETRTEM","TREATMENT EMERGENT FLAG","Y","DERIVED","CLINICAL STUDY SPONSOR"
"422","CDISCPILOT01","AE","01-705-1303","AESEQ","2","AETRTEM","TREATMENT EMERGENT FLAG","Y","DERIVED","CLINICAL STUDY SPONSOR"
"423","CDISCPILOT01","AE","01-705-1303","AESEQ","3","AETRTEM","TREATMENT EMERGENT FLAG","Y","DERIVED","CLINICAL STUDY SPONSOR"
"424","CDISCPILOT01","AE","01-705-1303","AESEQ","4","AETRTEM","TREATMENT EMERGENT FLAG","Y","DERIVED","CLINICAL STUDY SPONSOR"
"425","CDISCPILOT01","AE","01-705-1310","AESEQ","1","AETRTEM","TREATMENT EMERGENT FLAG","Y","DERIVED","CLINICAL STUDY SPONSOR"
"426","CDISCPILOT01","AE","01-705-1310","AESEQ","2","AETRTEM","TREATMENT EMERGENT FLAG","Y","DERIVED","CLINICAL STUDY SPONSOR"
"427","CDISCPILOT01","AE","01-705-1349","AESEQ","1","AETRTEM","TREATMENT EMERGENT FLAG","Y","DERIVED","CLINICAL STUDY SPONSOR"
"428","CDISCPILOT01","AE","01-705-1349","AESEQ","2","AETRTEM","TREATMENT EMERGENT FLAG","Y","DERIVED","CLINICAL STUDY SPONSOR"
"429","CDISCPILOT01","AE","01-705-1349","AESEQ","3","AETRTEM","TREATMENT EMERGENT FLAG","Y","DERIVED","CLINICAL STUDY SPONSOR"
"430","CDISCPILOT01","AE","01-705-1349","AESEQ","4","AETRTEM","TREATMENT EMERGENT FLAG","Y","DERIVED","CLINICAL STUDY SPONSOR"
"431","CDISCPILOT01","AE","01-705-1393","AESEQ","1","AETRTEM","TREATMENT EMERGENT FLAG","Y","DERIVED","CLINICAL STUDY SPONSOR"
"432","CDISCPILOT01","AE","01-705-1393","AESEQ","2","AETRTEM","TREATMENT EMERGENT FLAG","N","DERIVED","CLINICAL STUDY SPONSOR"
"433","CDISCPILOT01","AE","01-705-1393","AESEQ","3","AETRTEM","TREATMENT EMERGENT FLAG","Y","DERIVED","CLINICAL STUDY SPONSOR"
"434","CDISCPILOT01","AE","01-705-1393","AESEQ","4","AETRTEM","TREATMENT EMERGENT FLAG","N","DERIVED","CLINICAL STUDY SPONSOR"
"435","CDISCPILOT01","AE","01-705-1431","AESEQ","1","AETRTEM","TREATMENT EMERGENT FLAG","N","DERIVED","CLINICAL STUDY SPONSOR"
"436","CDISCPILOT01","AE","01-705-1431","AESEQ","2","AETRTEM","TREATMENT EMERGENT FLAG","Y","DERIVED","CLINICAL STUDY SPONSOR"
"437","CDISCPILOT01","AE","01-706-1041","AESEQ","1","AETRTEM","TREATMENT EMERGENT FLAG","N","DERIVED","CLINICAL STUDY SPONSOR"
"438","CDISCPILOT01","AE","01-706-1041","AESEQ","2","AETRTEM","TREATMENT EMERGENT FLAG","Y","DERIVED","CLINICAL STUDY SPONSOR"
"439","CDISCPILOT01","AE","01-706-1041","AESEQ","3","AETRTEM","TREATMENT EMERGENT FLAG","Y","DERIVED","CLINICAL STUDY SPONSOR"
"440","CDISCPILOT01","AE","01-706-1041","AESEQ","4","AETRTEM","TREATMENT EMERGENT FLAG","Y","DERIVED","CLINICAL STUDY SPONSOR"
"441","CDISCPILOT01","AE","01-706-1041","AESEQ","5","AETRTEM","TREATMENT EMERGENT FLAG","Y","DERIVED","CLINICAL STUDY SPONSOR"
"442","CDISCPILOT01","AE","01-706-1041","AESEQ","6","AETRTEM","TREATMENT EMERGENT FLAG","Y","DERIVED","CLINICAL STUDY SPONSOR"
"443","CDISCPILOT01","AE","01-706-1041","AESEQ","7","AETRTEM","TREATMENT EMERGENT FLAG","N","DERIVED","CLINICAL STUDY SPONSOR"
"444","CDISCPILOT01","AE","01-706-1041","AESEQ","8","AETRTEM","TREATMENT EMERGENT FLAG","Y","DERIVED","CLINICAL STUDY SPONSOR"
"445","CDISCPILOT01","AE","01-706-1041","AESEQ","9","AETRTEM","TREATMENT EMERGENT FLAG","Y","DERIVED","CLINICAL STUDY SPONSOR"
"446","CDISCPILOT01","AE","01-706-1049","AESEQ","1","AETRTEM","TREATMENT EMERGENT FLAG","Y","DERIVED","CLINICAL STUDY SPONSOR"
"447","CDISCPILOT01","AE","01-706-1049","AESEQ","2","AETRTEM","TREATMENT EMERGENT FLAG","Y","DERIVED","CLINICAL STUDY SPONSOR"
"448","CDISCPILOT01","AE","01-706-1384","AESEQ","1","AETRTEM","TREATMENT EMERGENT FLAG","Y","DERIVED","CLINICAL STUDY SPONSOR"
"449","CDISCPILOT01","AE","01-706-1384","AESEQ","10","AETRTEM","TREATMENT EMERGENT FLAG","Y","DERIVED","CLINICAL STUDY SPONSOR"
"450","CDISCPILOT01","AE","01-706-1384","AESEQ","2","AETRTEM","TREATMENT EMERGENT FLAG","Y","DERIVED","CLINICAL STUDY SPONSOR"
"451","CDISCPILOT01","AE","01-706-1384","AESEQ","3","AETRTEM","TREATMENT EMERGENT FLAG","Y","DERIVED","CLINICAL STUDY SPONSOR"
"452","CDISCPILOT01","AE","01-706-1384","AESEQ","4","AETRTEM","TREATMENT EMERGENT FLAG","Y","DERIVED","CLINICAL STUDY SPONSOR"
"453","CDISCPILOT01","AE","01-706-1384","AESEQ","5","AETRTEM","TREATMENT EMERGENT FLAG","Y","DERIVED","CLINICAL STUDY SPONSOR"
"454","CDISCPILOT01","AE","01-706-1384","AESEQ","6","AETRTEM","TREATMENT EMERGENT FLAG","Y","DERIVED","CLINICAL STUDY SPONSOR"
"455","CDISCPILOT01","AE","01-706-1384","AESEQ","7","AETRTEM","TREATMENT EMERGENT FLAG","Y","DERIVED","CLINICAL STUDY SPONSOR"
"456","CDISCPILOT01","AE","01-706-1384","AESEQ","8","AETRTEM","TREATMENT EMERGENT FLAG","Y","DERIVED","CLINICAL STUDY SPONSOR"
"457","CDISCPILOT01","AE","01-706-1384","AESEQ","9","AETRTEM","TREATMENT EMERGENT FLAG","Y","DERIVED","CLINICAL STUDY SPONSOR"
"458","CDISCPILOT01","AE","01-707-1206","AESEQ","1","AETRTEM","TREATMENT EMERGENT FLAG","Y","DERIVED","CLINICAL STUDY SPONSOR"
"459","CDISCPILOT01","AE","01-707-1206","AESEQ","2","AETRTEM","TREATMENT EMERGENT FLAG","Y","DERIVED","CLINICAL STUDY SPONSOR"
"460","CDISCPILOT01","AE","01-707-1206","AESEQ","3","AETRTEM","TREATMENT EMERGENT FLAG","Y","DERIVED","CLINICAL STUDY SPONSOR"
"461","CDISCPILOT01","AE","01-707-1206","AESEQ","4","AETRTEM","TREATMENT EMERGENT FLAG","Y","DERIVED","CLINICAL STUDY SPONSOR"
"462","CDISCPILOT01","AE","01-707-1206","AESEQ","5","AETRTEM","TREATMENT EMERGENT FLAG","Y","DERIVED","CLINICAL STUDY SPONSOR"
"463","CDISCPILOT01","AE","01-707-1206","AESEQ","6","AETRTEM","TREATMENT EMERGENT FLAG","Y","DERIVED","CLINICAL STUDY SPONSOR"
"464","CDISCPILOT01","AE","01-707-1206","AESEQ","7","AETRTEM","TREATMENT EMERGENT FLAG","Y","DERIVED","CLINICAL STUDY SPONSOR"
"465","CDISCPILOT01","AE","01-707-1206","AESEQ","8","AETRTEM","TREATMENT EMERGENT FLAG","Y","DERIVED","CLINICAL STUDY SPONSOR"
"466","CDISCPILOT01","AE","01-708-1019","AESEQ","1","AETRTEM","TREATMENT EMERGENT FLAG","Y","DERIVED","CLINICAL STUDY SPONSOR"
"467","CDISCPILOT01","AE","01-708-1019","AESEQ","2","AETRTEM","TREATMENT EMERGENT FLAG","Y","DERIVED","CLINICAL STUDY SPONSOR"
"468","CDISCPILOT01","AE","01-708-1019","AESEQ","3","AETRTEM","TREATMENT EMERGENT FLAG","Y","DERIVED","CLINICAL STUDY SPONSOR"
"469","CDISCPILOT01","AE","01-708-1019","AESEQ","4","AETRTEM","TREATMENT EMERGENT FLAG","Y","DERIVED","CLINICAL STUDY SPONSOR"
"470","CDISCPILOT01","AE","01-708-1019","AESEQ","5","AETRTEM","TREATMENT EMERGENT FLAG","Y","DERIVED","CLINICAL STUDY SPONSOR"
"471","CDISCPILOT01","AE","01-708-1032","AESEQ","1","AETRTEM","TREATMENT EMERGENT FLAG","Y","DERIVED","CLINICAL STUDY SPONSOR"
"472","CDISCPILOT01","AE","01-708-1084","AESEQ","1","AETRTEM","TREATMENT EMERGENT FLAG","Y","DERIVED","CLINICAL STUDY SPONSOR"
"473","CDISCPILOT01","AE","01-708-1084","AESEQ","2","AETRTEM","TREATMENT EMERGENT FLAG","Y","DERIVED","CLINICAL STUDY SPONSOR"
"474","CDISCPILOT01","AE","01-708-1084","AESEQ","3","AETRTEM","TREATMENT EMERGENT FLAG","Y","DERIVED","CLINICAL STUDY SPONSOR"
"475","CDISCPILOT01","AE","01-708-1084","AESEQ","4","AETRTEM","TREATMENT EMERGENT FLAG","Y","DERIVED","CLINICAL STUDY SPONSOR"
"476","CDISCPILOT01","AE","01-708-1084","AESEQ","5","AETRTEM","TREATMENT EMERGENT FLAG","Y","DERIVED","CLINICAL STUDY SPONSOR"
"477","CDISCPILOT01","AE","01-708-1084","AESEQ","6","AETRTEM","TREATMENT EMERGENT FLAG","Y","DERIVED","CLINICAL STUDY SPONSOR"
"478","CDISCPILOT01","AE","01-708-1087","AESEQ","1","AETRTEM","TREATMENT EMERGENT FLAG","Y","DERIVED","CLINICAL STUDY SPONSOR"
"479","CDISCPILOT01","AE","01-708-1087","AESEQ","2","AETRTEM","TREATMENT EMERGENT FLAG","Y","DERIVED","CLINICAL STUDY SPONSOR"
"480","CDISCPILOT01","AE","01-708-1087","AESEQ","3","AETRTEM","TREATMENT EMERGENT FLAG","Y","DERIVED","CLINICAL STUDY SPONSOR"
"481","CDISCPILOT01","AE","01-708-1087","AESEQ","4","AETRTEM","TREATMENT EMERGENT FLAG","Y","DERIVED","CLINICAL STUDY SPONSOR"
"482","CDISCPILOT01","AE","01-708-1087","AESEQ","5","AETRTEM","TREATMENT EMERGENT FLAG","Y","DERIVED","CLINICAL STUDY SPONSOR"
"483","CDISCPILOT01","AE","01-708-1087","AESEQ","6","AETRTEM","TREATMENT EMERGENT FLAG","Y","DERIVED","CLINICAL STUDY SPONSOR"
"484","CDISCPILOT01","AE","01-708-1158","AESEQ","1","AETRTEM","TREATMENT EMERGENT FLAG","Y","DERIVED","CLINICAL STUDY SPONSOR"
"485","CDISCPILOT01","AE","01-708-1158","AESEQ","2","AETRTEM","TREATMENT EMERGENT FLAG","Y","DERIVED","CLINICAL STUDY SPONSOR"
"486","CDISCPILOT01","AE","01-708-1178","AESEQ","1","AETRTEM","TREATMENT EMERGENT FLAG","N","DERIVED","CLINICAL STUDY SPONSOR"
"487","CDISCPILOT01","AE","01-708-1178","AESEQ","2","AETRTEM","TREATMENT EMERGENT FLAG","Y","DERIVED","CLINICAL STUDY SPONSOR"
"488","CDISCPILOT01","AE","01-708-1178","AESEQ","3","AETRTEM","TREATMENT EMERGENT FLAG","Y","DERIVED","CLINICAL STUDY SPONSOR"
"489","CDISCPILOT01","AE","01-708-1178","AESEQ","4","AETRTEM","TREATMENT EMERGENT FLAG","Y","DERIVED","CLINICAL STUDY SPONSOR"
"490","CDISCPILOT01","AE","01-708-1178","AESEQ","5","AETRTEM","TREATMENT EMERGENT FLAG","Y","DERIVED","CLINICAL STUDY SPONSOR"
"491","CDISCPILOT01","AE","01-708-1178","AESEQ","6","AETRTEM","TREATMENT EMERGENT FLAG","Y","DERIVED","CLINICAL STUDY SPONSOR"
"492","CDISCPILOT01","AE","01-708-1178","AESEQ","7","AETRTEM","TREATMENT EMERGENT FLAG","Y","DERIVED","CLINICAL STUDY SPONSOR"
"493","CDISCPILOT01","AE","01-708-1178","AESEQ","8","AETRTEM","TREATMENT EMERGENT FLAG","Y","DERIVED","CLINICAL STUDY SPONSOR"
"494","CDISCPILOT01","AE","01-708-1178","AESEQ","9","AETRTEM","TREATMENT EMERGENT FLAG","Y","DERIVED","CLINICAL STUDY SPONSOR"
"495","CDISCPILOT01","AE","01-708-1213","AESEQ","1","AETRTEM","TREATMENT EMERGENT FLAG","Y","DERIVED","CLINICAL STUDY SPONSOR"
"496","CDISCPILOT01","AE","01-708-1213","AESEQ","2","AETRTEM","TREATMENT EMERGENT FLAG","Y","DERIVED","CLINICAL STUDY SPONSOR"
"497","CDISCPILOT01","AE","01-708-1216","AESEQ","1","AETRTEM","TREATMENT EMERGENT FLAG","Y","DERIVED","CLINICAL STUDY SPONSOR"
"498","CDISCPILOT01","AE","01-708-1216","AESEQ","2","AETRTEM","TREATMENT EMERGENT FLAG","Y","DERIVED","CLINICAL STUDY SPONSOR"
"499","CDISCPILOT01","AE","01-708-1216","AESEQ","3","AETRTEM","TREATMENT EMERGENT FLAG","Y","DERIVED","CLINICAL STUDY SPONSOR"
"500","CDISCPILOT01","AE","01-708-1216","AESEQ","4","AETRTEM","TREATMENT EMERGENT FLAG","Y","DERIVED","CLINICAL STUDY SPONSOR"
"501","CDISCPILOT01","AE","01-708-1253","AESEQ","1","AETRTEM","TREATMENT EMERGENT FLAG","N","DERIVED","CLINICAL STUDY SPONSOR"
"502","CDISCPILOT01","AE","01-708-1253","AESEQ","2","AETRTEM","TREATMENT EMERGENT FLAG","N","DERIVED","CLINICAL STUDY SPONSOR"
"503","CDISCPILOT01","AE","01-708-1253","AESEQ","3","AETRTEM","TREATMENT EMERGENT FLAG","Y","DERIVED","CLINICAL STUDY SPONSOR"
"504","CDISCPILOT01","AE","01-708-1253","AESEQ","4","AETRTEM","TREATMENT EMERGENT FLAG","N","DERIVED","CLINICAL STUDY SPONSOR"
"505","CDISCPILOT01","AE","01-708-1253","AESEQ","5","AETRTEM","TREATMENT EMERGENT FLAG","N","DERIVED","CLINICAL STUDY SPONSOR"
"506","CDISCPILOT01","AE","01-708-1253","AESEQ","6","AETRTEM","TREATMENT EMERGENT FLAG","Y","DERIVED","CLINICAL STUDY SPONSOR"
"507","CDISCPILOT01","AE","01-708-1253","AESEQ","7","AETRTEM","TREATMENT EMERGENT FLAG","Y","DERIVED","CLINICAL STUDY SPONSOR"
"508","CDISCPILOT01","AE","01-708-1253","AESEQ","8","AETRTEM","TREATMENT EMERGENT FLAG","Y","DERIVED","CLINICAL STUDY SPONSOR"
"509","CDISCPILOT01","AE","01-708-1272","AESEQ","1","AETRTEM","TREATMENT EMERGENT FLAG","Y","DERIVED","CLINICAL STUDY SPONSOR"
"510","CDISCPILOT01","AE","01-708-1272","AESEQ","10","AETRTEM","TREATMENT EMERGENT FLAG","Y","DERIVED","CLINICAL STUDY SPONSOR"
"511","CDISCPILOT01","AE","01-708-1272","AESEQ","11","AETRTEM","TREATMENT EMERGENT FLAG","Y","DERIVED","CLINICAL STUDY SPONSOR"
"512","CDISCPILOT01","AE","01-708-1272","AESEQ","12","AETRTEM","TREATMENT EMERGENT FLAG","Y","DERIVED","CLINICAL STUDY SPONSOR"
"513","CDISCPILOT01","AE","01-708-1272","AESEQ","2","AETRTEM","TREATMENT EMERGENT FLAG","Y","DERIVED","CLINICAL STUDY SPONSOR"
"514","CDISCPILOT01","AE","01-708-1272","AESEQ","3","AETRTEM","TREATMENT EMERGENT FLAG","Y","DERIVED","CLINICAL STUDY SPONSOR"
"515","CDISCPILOT01","AE","01-708-1272","AESEQ","4","AETRTEM","TREATMENT EMERGENT FLAG","Y","DERIVED","CLINICAL STUDY SPONSOR"
"516","CDISCPILOT01","AE","01-708-1272","AESEQ","5","AETRTEM","TREATMENT EMERGENT FLAG","Y","DERIVED","CLINICAL STUDY SPONSOR"
"517","CDISCPILOT01","AE","01-708-1272","AESEQ","6","AETRTEM","TREATMENT EMERGENT FLAG","Y","DERIVED","CLINICAL STUDY SPONSOR"
"518","CDISCPILOT01","AE","01-708-1272","AESEQ","7","AETRTEM","TREATMENT EMERGENT FLAG","Y","DERIVED","CLINICAL STUDY SPONSOR"
"519","CDISCPILOT01","AE","01-708-1272","AESEQ","8","AETRTEM","TREATMENT EMERGENT FLAG","Y","DERIVED","CLINICAL STUDY SPONSOR"
"520","CDISCPILOT01","AE","01-708-1272","AESEQ","9","AETRTEM","TREATMENT EMERGENT FLAG","Y","DERIVED","CLINICAL STUDY SPONSOR"
"521","CDISCPILOT01","AE","01-708-1286","AESEQ","1","AETRTEM","TREATMENT EMERGENT FLAG","Y","DERIVED","CLINICAL STUDY SPONSOR"
"522","CDISCPILOT01","AE","01-708-1286","AESEQ","2","AETRTEM","TREATMENT EMERGENT FLAG","Y","DERIVED","CLINICAL STUDY SPONSOR"
"523","CDISCPILOT01","AE","01-708-1286","AESEQ","3","AETRTEM","TREATMENT EMERGENT FLAG","Y","DERIVED","CLINICAL STUDY SPONSOR"
"524","CDISCPILOT01","AE","01-708-1286","AESEQ","4","AETRTEM","TREATMENT EMERGENT FLAG","Y","DERIVED","CLINICAL STUDY SPONSOR"
"525","CDISCPILOT01","AE","01-708-1296","AESEQ","1","AETRTEM","TREATMENT EMERGENT FLAG","Y","DERIVED","CLINICAL STUDY SPONSOR"
"526","CDISCPILOT01","AE","01-708-1296","AESEQ","2","AETRTEM","TREATMENT EMERGENT FLAG","Y","DERIVED","CLINICAL STUDY SPONSOR"
"527","CDISCPILOT01","AE","01-708-1296","AESEQ","3","AETRTEM","TREATMENT EMERGENT FLAG","Y","DERIVED","CLINICAL STUDY SPONSOR"
"528","CDISCPILOT01","AE","01-708-1296","AESEQ","4","AETRTEM","TREATMENT EMERGENT FLAG","Y","DERIVED","CLINICAL STUDY SPONSOR"
"529","CDISCPILOT01","AE","01-708-1296","AESEQ","5","AETRTEM","TREATMENT EMERGENT FLAG","Y","DERIVED","CLINICAL STUDY SPONSOR"
"530","CDISCPILOT01","AE","01-708-1296","AESEQ","6","AETRTEM","TREATMENT EMERGENT FLAG","Y","DERIVED","CLINICAL STUDY SPONSOR"
"531","CDISCPILOT01","AE","01-708-1296","AESEQ","7","AETRTEM","TREATMENT EMERGENT FLAG","Y","DERIVED","CLINICAL STUDY SPONSOR"
"532","CDISCPILOT01","AE","01-708-1297","AESEQ","1","AETRTEM","TREATMENT EMERGENT FLAG","Y","DERIVED","CLINICAL STUDY SPONSOR"
"533","CDISCPILOT01","AE","01-708-1297","AESEQ","2","AETRTEM","TREATMENT EMERGENT FLAG","Y","DERIVED","CLINICAL STUDY SPONSOR"
"534","CDISCPILOT01","AE","01-708-1297","AESEQ","3","AETRTEM","TREATMENT EMERGENT FLAG","Y","DERIVED","CLINICAL STUDY SPONSOR"
"535","CDISCPILOT01","AE","01-708-1316","AESEQ","1","AETRTEM","TREATMENT EMERGENT FLAG","Y","DERIVED","CLINICAL STUDY SPONSOR"
"536","CDISCPILOT01","AE","01-708-1316","AESEQ","2","AETRTEM","TREATMENT EMERGENT FLAG","Y","DERIVED","CLINICAL STUDY SPONSOR"
"537","CDISCPILOT01","AE","01-708-1336","AESEQ","1","AETRTEM","TREATMENT EMERGENT FLAG","Y","DERIVED","CLINICAL STUDY SPONSOR"
"538","CDISCPILOT01","AE","01-708-1336","AESEQ","2","AETRTEM","TREATMENT EMERGENT FLAG","Y","DERIVED","CLINICAL STUDY SPONSOR"
"539","CDISCPILOT01","AE","01-708-1336","AESEQ","3","AETRTEM","TREATMENT EMERGENT FLAG","Y","DERIVED","CLINICAL STUDY SPONSOR"
"540","CDISCPILOT01","AE","01-708-1336","AESEQ","4","AETRTEM","TREATMENT EMERGENT FLAG","Y","DERIVED","CLINICAL STUDY SPONSOR"
"541","CDISCPILOT01","AE","01-708-1336","AESEQ","5","AETRTEM","TREATMENT EMERGENT FLAG","Y","DERIVED","CLINICAL STUDY SPONSOR"
"542","CDISCPILOT01","AE","01-708-1336","AESEQ","6","AETRTEM","TREATMENT EMERGENT FLAG","Y","DERIVED","CLINICAL STUDY SPONSOR"
"543","CDISCPILOT01","AE","01-708-1336","AESEQ","7","AETRTEM","TREATMENT EMERGENT FLAG","Y","DERIVED","CLINICAL STUDY SPONSOR"
"544","CDISCPILOT01","AE","01-708-1347","AESEQ","1","AETRTEM","TREATMENT EMERGENT FLAG","Y","DERIVED","CLINICAL STUDY SPONSOR"
"545","CDISCPILOT01","AE","01-708-1347","AESEQ","2","AETRTEM","TREATMENT EMERGENT FLAG","Y","DERIVED","CLINICAL STUDY SPONSOR"
"546","CDISCPILOT01","AE","01-708-1347","AESEQ","3","AETRTEM","TREATMENT EMERGENT FLAG","Y","DERIVED","CLINICAL STUDY SPONSOR"
"547","CDISCPILOT01","AE","01-708-1347","AESEQ","4","AETRTEM","TREATMENT EMERGENT FLAG","Y","DERIVED","CLINICAL STUDY SPONSOR"
"548","CDISCPILOT01","AE","01-708-1347","AESEQ","5","AETRTEM","TREATMENT EMERGENT FLAG","Y","DERIVED","CLINICAL STUDY SPONSOR"
"549","CDISCPILOT01","AE","01-708-1347","AESEQ","6","AETRTEM","TREATMENT EMERGENT FLAG","Y","DERIVED","CLINICAL STUDY SPONSOR"
"550","CDISCPILOT01","AE","01-708-1347","AESEQ","7","AETRTEM","TREATMENT EMERGENT FLAG","Y","DERIVED","CLINICAL STUDY SPONSOR"
"551","CDISCPILOT01","AE","01-708-1347","AESEQ","8","AETRTEM","TREATMENT EMERGENT FLAG","Y","DERIVED","CLINICAL STUDY SPONSOR"
"552","CDISCPILOT01","AE","01-708-1348","AESEQ","1","AETRTEM","TREATMENT EMERGENT FLAG","Y","DERIVED","CLINICAL STUDY SPONSOR"
"553","CDISCPILOT01","AE","01-708-1348","AESEQ","2","AETRTEM","TREATMENT EMERGENT FLAG","Y","DERIVED","CLINICAL STUDY SPONSOR"
"554","CDISCPILOT01","AE","01-708-1348","AESEQ","3","AETRTEM","TREATMENT EMERGENT FLAG","Y","DERIVED","CLINICAL STUDY SPONSOR"
"555","CDISCPILOT01","AE","01-708-1353","AESEQ","1","AETRTEM","TREATMENT EMERGENT FLAG","Y","DERIVED","CLINICAL STUDY SPONSOR"
"556","CDISCPILOT01","AE","01-708-1353","AESEQ","2","AETRTEM","TREATMENT EMERGENT FLAG","Y","DERIVED","CLINICAL STUDY SPONSOR"
"557","CDISCPILOT01","AE","01-708-1353","AESEQ","3","AETRTEM","TREATMENT EMERGENT FLAG","Y","DERIVED","CLINICAL STUDY SPONSOR"
"558","CDISCPILOT01","AE","01-708-1372","AESEQ","1","AETRTEM","TREATMENT EMERGENT FLAG","N","DERIVED","CLINICAL STUDY SPONSOR"
"559","CDISCPILOT01","AE","01-708-1406","AESEQ","1","AETRTEM","TREATMENT EMERGENT FLAG","Y","DERIVED","CLINICAL STUDY SPONSOR"
"560","CDISCPILOT01","AE","01-708-1406","AESEQ","2","AETRTEM","TREATMENT EMERGENT FLAG","Y","DERIVED","CLINICAL STUDY SPONSOR"
"561","CDISCPILOT01","AE","01-708-1428","AESEQ","1","AETRTEM","TREATMENT EMERGENT FLAG","Y","DERIVED","CLINICAL STUDY SPONSOR"
"562","CDISCPILOT01","AE","01-708-1428","AESEQ","2","AETRTEM","TREATMENT EMERGENT FLAG","Y","DERIVED","CLINICAL STUDY SPONSOR"
"563","CDISCPILOT01","AE","01-708-1428","AESEQ","3","AETRTEM","TREATMENT EMERGENT FLAG","Y","DERIVED","CLINICAL STUDY SPONSOR"
"564","CDISCPILOT01","AE","01-708-1428","AESEQ","4","AETRTEM","TREATMENT EMERGENT FLAG","Y","DERIVED","CLINICAL STUDY SPONSOR"
"565","CDISCPILOT01","AE","01-708-1428","AESEQ","5","AETRTEM","TREATMENT EMERGENT FLAG","Y","DERIVED","CLINICAL STUDY SPONSOR"
"566","CDISCPILOT01","AE","01-708-1428","AESEQ","6","AETRTEM","TREATMENT EMERGENT FLAG","Y","DERIVED","CLINICAL STUDY SPONSOR"
"567","CDISCPILOT01","AE","01-708-1428","AESEQ","7","AETRTEM","TREATMENT EMERGENT FLAG","Y","DERIVED","CLINICAL STUDY SPONSOR"
"568","CDISCPILOT01","AE","01-709-1007","AESEQ","1","AETRTEM","TREATMENT EMERGENT FLAG","Y","DERIVED","CLINICAL STUDY SPONSOR"
"569","CDISCPILOT01","AE","01-709-1007","AESEQ","2","AETRTEM","TREATMENT EMERGENT FLAG","Y","DERIVED","CLINICAL STUDY SPONSOR"
"570","CDISCPILOT01","AE","01-709-1007","AESEQ","3","AETRTEM","TREATMENT EMERGENT FLAG","Y","DERIVED","CLINICAL STUDY SPONSOR"
"571","CDISCPILOT01","AE","01-709-1007","AESEQ","4","AETRTEM","TREATMENT EMERGENT FLAG","Y","DERIVED","CLINICAL STUDY SPONSOR"
"572","CDISCPILOT01","AE","01-709-1020","AESEQ","1","AETRTEM","TREATMENT EMERGENT FLAG","Y","DERIVED","CLINICAL STUDY SPONSOR"
"573","CDISCPILOT01","AE","01-709-1020","AESEQ","2","AETRTEM","TREATMENT EMERGENT FLAG","Y","DERIVED","CLINICAL STUDY SPONSOR"
"574","CDISCPILOT01","AE","01-709-1020","AESEQ","3","AETRTEM","TREATMENT EMERGENT FLAG","Y","DERIVED","CLINICAL STUDY SPONSOR"
"575","CDISCPILOT01","AE","01-709-1020","AESEQ","4","AETRTEM","TREATMENT EMERGENT FLAG","Y","DERIVED","CLINICAL STUDY SPONSOR"
"576","CDISCPILOT01","AE","01-709-1029","AESEQ","1","AETRTEM","TREATMENT EMERGENT FLAG","Y","DERIVED","CLINICAL STUDY SPONSOR"
"577","CDISCPILOT01","AE","01-709-1029","AESEQ","10","AETRTEM","TREATMENT EMERGENT FLAG","Y","DERIVED","CLINICAL STUDY SPONSOR"
"578","CDISCPILOT01","AE","01-709-1029","AESEQ","11","AETRTEM","TREATMENT EMERGENT FLAG","Y","DERIVED","CLINICAL STUDY SPONSOR"
"579","CDISCPILOT01","AE","01-709-1029","AESEQ","12","AETRTEM","TREATMENT EMERGENT FLAG","Y","DERIVED","CLINICAL STUDY SPONSOR"
"580","CDISCPILOT01","AE","01-709-1029","AESEQ","13","AETRTEM","TREATMENT EMERGENT FLAG","Y","DERIVED","CLINICAL STUDY SPONSOR"
"581","CDISCPILOT01","AE","01-709-1029","AESEQ","14","AETRTEM","TREATMENT EMERGENT FLAG","Y","DERIVED","CLINICAL STUDY SPONSOR"
"582","CDISCPILOT01","AE","01-709-1029","AESEQ","15","AETRTEM","TREATMENT EMERGENT FLAG","Y","DERIVED","CLINICAL STUDY SPONSOR"
"583","CDISCPILOT01","AE","01-709-1029","AESEQ","16","AETRTEM","TREATMENT EMERGENT FLAG","Y","DERIVED","CLINICAL STUDY SPONSOR"
"584","CDISCPILOT01","AE","01-709-1029","AESEQ","2","AETRTEM","TREATMENT EMERGENT FLAG","Y","DERIVED","CLINICAL STUDY SPONSOR"
"585","CDISCPILOT01","AE","01-709-1029","AESEQ","3","AETRTEM","TREATMENT EMERGENT FLAG","Y","DERIVED","CLINICAL STUDY SPONSOR"
"586","CDISCPILOT01","AE","01-709-1029","AESEQ","4","AETRTEM","TREATMENT EMERGENT FLAG","Y","DERIVED","CLINICAL STUDY SPONSOR"
"587","CDISCPILOT01","AE","01-709-1029","AESEQ","5","AETRTEM","TREATMENT EMERGENT FLAG","Y","DERIVED","CLINICAL STUDY SPONSOR"
"588","CDISCPILOT01","AE","01-709-1029","AESEQ","6","AETRTEM","TREATMENT EMERGENT FLAG","Y","DERIVED","CLINICAL STUDY SPONSOR"
"589","CDISCPILOT01","AE","01-709-1029","AESEQ","7","AETRTEM","TREATMENT EMERGENT FLAG","Y","DERIVED","CLINICAL STUDY SPONSOR"
"590","CDISCPILOT01","AE","01-709-1029","AESEQ","8","AETRTEM","TREATMENT EMERGENT FLAG","Y","DERIVED","CLINICAL STUDY SPONSOR"
"591","CDISCPILOT01","AE","01-709-1029","AESEQ","9","AETRTEM","TREATMENT EMERGENT FLAG","Y","DERIVED","CLINICAL STUDY SPONSOR"
"592","CDISCPILOT01","AE","01-709-1081","AESEQ","1","AETRTEM","TREATMENT EMERGENT FLAG","Y","DERIVED","CLINICAL STUDY SPONSOR"
"593","CDISCPILOT01","AE","01-709-1081","AESEQ","2","AETRTEM","TREATMENT EMERGENT FLAG","Y","DERIVED","CLINICAL STUDY SPONSOR"
"594","CDISCPILOT01","AE","01-709-1088","AESEQ","1","AETRTEM","TREATMENT EMERGENT FLAG","Y","DERIVED","CLINICAL STUDY SPONSOR"
"595","CDISCPILOT01","AE","01-709-1088","AESEQ","2","AETRTEM","TREATMENT EMERGENT FLAG","Y","DERIVED","CLINICAL STUDY SPONSOR"
"596","CDISCPILOT01","AE","01-709-1099","AESEQ","1","AETRTEM","TREATMENT EMERGENT FLAG","Y","DERIVED","CLINICAL STUDY SPONSOR"
"597","CDISCPILOT01","AE","01-709-1099","AESEQ","2","AETRTEM","TREATMENT EMERGENT FLAG","Y","DERIVED","CLINICAL STUDY SPONSOR"
"598","CDISCPILOT01","AE","01-709-1099","AESEQ","3","AETRTEM","TREATMENT EMERGENT FLAG","Y","DERIVED","CLINICAL STUDY SPONSOR"
"599","CDISCPILOT01","AE","01-709-1099","AESEQ","4","AETRTEM","TREATMENT EMERGENT FLAG","Y","DERIVED","CLINICAL STUDY SPONSOR"
"600","CDISCPILOT01","AE","01-709-1099","AESEQ","5","AETRTEM","TREATMENT EMERGENT FLAG","Y","DERIVED","CLINICAL STUDY SPONSOR"
"601","CDISCPILOT01","AE","01-709-1099","AESEQ","6","AETRTEM","TREATMENT EMERGENT FLAG","Y","DERIVED","CLINICAL STUDY SPONSOR"
"602","CDISCPILOT01","AE","01-709-1099","AESEQ","7","AETRTEM","TREATMENT EMERGENT FLAG","Y","DERIVED","CLINICAL STUDY SPONSOR"
"603","CDISCPILOT01","AE","01-709-1099","AESEQ","8","AETRTEM","TREATMENT EMERGENT FLAG","Y","DERIVED","CLINICAL STUDY SPONSOR"
"604","CDISCPILOT01","AE","01-709-1102","AESEQ","1","AETRTEM","TREATMENT EMERGENT FLAG","Y","DERIVED","CLINICAL STUDY SPONSOR"
"605","CDISCPILOT01","AE","01-709-1102","AESEQ","2","AETRTEM","TREATMENT EMERGENT FLAG","Y","DERIVED","CLINICAL STUDY SPONSOR"
"606","CDISCPILOT01","AE","01-709-1102","AESEQ","3","AETRTEM","TREATMENT EMERGENT FLAG","Y","DERIVED","CLINICAL STUDY SPONSOR"
"607","CDISCPILOT01","AE","01-709-1102","AESEQ","4","AETRTEM","TREATMENT EMERGENT FLAG","Y","DERIVED","CLINICAL STUDY SPONSOR"
"608","CDISCPILOT01","AE","01-709-1102","AESEQ","5","AETRTEM","TREATMENT EMERGENT FLAG","Y","DERIVED","CLINICAL STUDY SPONSOR"
"609","CDISCPILOT01","AE","01-709-1102","AESEQ","6","AETRTEM","TREATMENT EMERGENT FLAG","Y","DERIVED","CLINICAL STUDY SPONSOR"
"610","CDISCPILOT01","AE","01-709-1168","AESEQ","1","AETRTEM","TREATMENT EMERGENT FLAG","Y","DERIVED","CLINICAL STUDY SPONSOR"
"611","CDISCPILOT01","AE","01-709-1168","AESEQ","2","AETRTEM","TREATMENT EMERGENT FLAG","Y","DERIVED","CLINICAL STUDY SPONSOR"
"612","CDISCPILOT01","AE","01-709-1168","AESEQ","3","AETRTEM","TREATMENT EMERGENT FLAG","Y","DERIVED","CLINICAL STUDY SPONSOR"
"613","CDISCPILOT01","AE","01-709-1168","AESEQ","4","AETRTEM","TREATMENT EMERGENT FLAG","Y","DERIVED","CLINICAL STUDY SPONSOR"
"614","CDISCPILOT01","AE","01-709-1168","AESEQ","5","AETRTEM","TREATMENT EMERGENT FLAG","Y","DERIVED","CLINICAL STUDY SPONSOR"
"615","CDISCPILOT01","AE","01-709-1168","AESEQ","6","AETRTEM","TREATMENT EMERGENT FLAG","Y","DERIVED","CLINICAL STUDY SPONSOR"
"616","CDISCPILOT01","AE","01-709-1217","AESEQ","1","AETRTEM","TREATMENT EMERGENT FLAG","Y","DERIVED","CLINICAL STUDY SPONSOR"
"617","CDISCPILOT01","AE","01-709-1217","AESEQ","10","AETRTEM","TREATMENT EMERGENT FLAG","Y","DERIVED","CLINICAL STUDY SPONSOR"
"618","CDISCPILOT01","AE","01-709-1217","AESEQ","11","AETRTEM","TREATMENT EMERGENT FLAG","Y","DERIVED","CLINICAL STUDY SPONSOR"
"619","CDISCPILOT01","AE","01-709-1217","AESEQ","2","AETRTEM","TREATMENT EMERGENT FLAG","Y","DERIVED","CLINICAL STUDY SPONSOR"
"620","CDISCPILOT01","AE","01-709-1217","AESEQ","3","AETRTEM","TREATMENT EMERGENT FLAG","Y","DERIVED","CLINICAL STUDY SPONSOR"
"621","CDISCPILOT01","AE","01-709-1217","AESEQ","4","AETRTEM","TREATMENT EMERGENT FLAG","Y","DERIVED","CLINICAL STUDY SPONSOR"
"622","CDISCPILOT01","AE","01-709-1217","AESEQ","5","AETRTEM","TREATMENT EMERGENT FLAG","Y","DERIVED","CLINICAL STUDY SPONSOR"
"623","CDISCPILOT01","AE","01-709-1217","AESEQ","6","AETRTEM","TREATMENT EMERGENT FLAG","Y","DERIVED","CLINICAL STUDY SPONSOR"
"624","CDISCPILOT01","AE","01-709-1217","AESEQ","7","AETRTEM","TREATMENT EMERGENT FLAG","Y","DERIVED","CLINICAL STUDY SPONSOR"
"625","CDISCPILOT01","AE","01-709-1217","AESEQ","8","AETRTEM","TREATMENT EMERGENT FLAG","Y","DERIVED","CLINICAL STUDY SPONSOR"
"626","CDISCPILOT01","AE","01-709-1217","AESEQ","9","AETRTEM","TREATMENT EMERGENT FLAG","Y","DERIVED","CLINICAL STUDY SPONSOR"
"627","CDISCPILOT01","AE","01-709-1238","AESEQ","1","AETRTEM","TREATMENT EMERGENT FLAG","Y","DERIVED","CLINICAL STUDY SPONSOR"
"628","CDISCPILOT01","AE","01-709-1238","AESEQ","2","AETRTEM","TREATMENT EMERGENT FLAG","Y","DERIVED","CLINICAL STUDY SPONSOR"
"629","CDISCPILOT01","AE","01-709-1238","AESEQ","3","AETRTEM","TREATMENT EMERGENT FLAG","Y","DERIVED","CLINICAL STUDY SPONSOR"
"630","CDISCPILOT01","AE","01-709-1238","AESEQ","4","AETRTEM","TREATMENT EMERGENT FLAG","Y","DERIVED","CLINICAL STUDY SPONSOR"
"631","CDISCPILOT01","AE","01-709-1238","AESEQ","5","AETRTEM","TREATMENT EMERGENT FLAG","Y","DERIVED","CLINICAL STUDY SPONSOR"
"632","CDISCPILOT01","AE","01-709-1238","AESEQ","6","AETRTEM","TREATMENT EMERGENT FLAG","Y","DERIVED","CLINICAL STUDY SPONSOR"
"633","CDISCPILOT01","AE","01-709-1238","AESEQ","7","AETRTEM","TREATMENT EMERGENT FLAG","Y","DERIVED","CLINICAL STUDY SPONSOR"
"634","CDISCPILOT01","AE","01-709-1238","AESEQ","8","AETRTEM","TREATMENT EMERGENT FLAG","Y","DERIVED","CLINICAL STUDY SPONSOR"
"635","CDISCPILOT01","AE","01-709-1259","AESEQ","1","AETRTEM","TREATMENT EMERGENT FLAG","Y","DERIVED","CLINICAL STUDY SPONSOR"
"636","CDISCPILOT01","AE","01-709-1259","AESEQ","10","AETRTEM","TREATMENT EMERGENT FLAG","Y","DERIVED","CLINICAL STUDY SPONSOR"
"637","CDISCPILOT01","AE","01-709-1259","AESEQ","11","AETRTEM","TREATMENT EMERGENT FLAG","Y","DERIVED","CLINICAL STUDY SPONSOR"
"638","CDISCPILOT01","AE","01-709-1259","AESEQ","2","AETRTEM","TREATMENT EMERGENT FLAG","Y","DERIVED","CLINICAL STUDY SPONSOR"
"639","CDISCPILOT01","AE","01-709-1259","AESEQ","3","AETRTEM","TREATMENT EMERGENT FLAG","Y","DERIVED","CLINICAL STUDY SPONSOR"
"640","CDISCPILOT01","AE","01-709-1259","AESEQ","4","AETRTEM","TREATMENT EMERGENT FLAG","Y","DERIVED","CLINICAL STUDY SPONSOR"
"641","CDISCPILOT01","AE","01-709-1259","AESEQ","5","AETRTEM","TREATMENT EMERGENT FLAG","Y","DERIVED","CLINICAL STUDY SPONSOR"
"642","CDISCPILOT01","AE","01-709-1259","AESEQ","6","AETRTEM","TREATMENT EMERGENT FLAG","Y","DERIVED","CLINICAL STUDY SPONSOR"
"643","CDISCPILOT01","AE","01-709-1259","AESEQ","7","AETRTEM","TREATMENT EMERGENT FLAG","Y","DERIVED","CLINICAL STUDY SPONSOR"
"644","CDISCPILOT01","AE","01-709-1259","AESEQ","8","AETRTEM","TREATMENT EMERGENT FLAG","Y","DERIVED","CLINICAL STUDY SPONSOR"
"645","CDISCPILOT01","AE","01-709-1259","AESEQ","9","AETRTEM","TREATMENT EMERGENT FLAG","Y","DERIVED","CLINICAL STUDY SPONSOR"
"646","CDISCPILOT01","AE","01-709-1285","AESEQ","1","AETRTEM","TREATMENT EMERGENT FLAG","Y","DERIVED","CLINICAL STUDY SPONSOR"
"647","CDISCPILOT01","AE","01-709-1285","AESEQ","2","AETRTEM","TREATMENT EMERGENT FLAG","Y","DERIVED","CLINICAL STUDY SPONSOR"
"648","CDISCPILOT01","AE","01-709-1285","AESEQ","3","AETRTEM","TREATMENT EMERGENT FLAG","Y","DERIVED","CLINICAL STUDY SPONSOR"
"649","CDISCPILOT01","AE","01-709-1285","AESEQ","4","AETRTEM","TREATMENT EMERGENT FLAG","Y","DERIVED","CLINICAL STUDY SPONSOR"
"650","CDISCPILOT01","AE","01-709-1285","AESEQ","5","AETRTEM","TREATMENT EMERGENT FLAG","Y","DERIVED","CLINICAL STUDY SPONSOR"
"651","CDISCPILOT01","AE","01-709-1285","AESEQ","6","AETRTEM","TREATMENT EMERGENT FLAG","Y","DERIVED","CLINICAL STUDY SPONSOR"
"652","CDISCPILOT01","AE","01-709-1301","AESEQ","1","AETRTEM","TREATMENT EMERGENT FLAG","Y","DERIVED","CLINICAL STUDY SPONSOR"
"653","CDISCPILOT01","AE","01-709-1306","AESEQ","1","AETRTEM","TREATMENT EMERGENT FLAG","Y","DERIVED","CLINICAL STUDY SPONSOR"
"654","CDISCPILOT01","AE","01-709-1306","AESEQ","2","AETRTEM","TREATMENT EMERGENT FLAG","Y","DERIVED","CLINICAL STUDY SPONSOR"
"655","CDISCPILOT01","AE","01-709-1306","AESEQ","3","AETRTEM","TREATMENT EMERGENT FLAG","Y","DERIVED","CLINICAL STUDY SPONSOR"
"656","CDISCPILOT01","AE","01-709-1306","AESEQ","4","AETRTEM","TREATMENT EMERGENT FLAG","Y","DERIVED","CLINICAL STUDY SPONSOR"
"657","CDISCPILOT01","AE","01-709-1306","AESEQ","5","AETRTEM","TREATMENT EMERGENT FLAG","Y","DERIVED","CLINICAL STUDY SPONSOR"
"658","CDISCPILOT01","AE","01-709-1306","AESEQ","6","AETRTEM","TREATMENT EMERGENT FLAG","Y","DERIVED","CLINICAL STUDY SPONSOR"
"659","CDISCPILOT01","AE","01-709-1306","AESEQ","7","AETRTEM","TREATMENT EMERGENT FLAG","Y","DERIVED","CLINICAL STUDY SPONSOR"
"660","CDISCPILOT01","AE","01-709-1306","AESEQ","8","AETRTEM","TREATMENT EMERGENT FLAG","Y","DERIVED","CLINICAL STUDY SPONSOR"
"661","CDISCPILOT01","AE","01-709-1306","AESEQ","9","AETRTEM","TREATMENT EMERGENT FLAG","Y","DERIVED","CLINICAL STUDY SPONSOR"
"662","CDISCPILOT01","AE","01-709-1309","AESEQ","1","AETRTEM","TREATMENT EMERGENT FLAG","N","DERIVED","CLINICAL STUDY SPONSOR"
"663","CDISCPILOT01","AE","01-709-1309","AESEQ","10","AETRTEM","TREATMENT EMERGENT FLAG","N","DERIVED","CLINICAL STUDY SPONSOR"
"664","CDISCPILOT01","AE","01-709-1309","AESEQ","11","AETRTEM","TREATMENT EMERGENT FLAG","Y","DERIVED","CLINICAL STUDY SPONSOR"
"665","CDISCPILOT01","AE","01-709-1309","AESEQ","12","AETRTEM","TREATMENT EMERGENT FLAG","Y","DERIVED","CLINICAL STUDY SPONSOR"
"666","CDISCPILOT01","AE","01-709-1309","AESEQ","13","AETRTEM","TREATMENT EMERGENT FLAG","N","DERIVED","CLINICAL STUDY SPONSOR"
"667","CDISCPILOT01","AE","01-709-1309","AESEQ","14","AETRTEM","TREATMENT EMERGENT FLAG","Y","DERIVED","CLINICAL STUDY SPONSOR"
"668","CDISCPILOT01","AE","01-709-1309","AESEQ","15","AETRTEM","TREATMENT EMERGENT FLAG","Y","DERIVED","CLINICAL STUDY SPONSOR"
"669","CDISCPILOT01","AE","01-709-1309","AESEQ","2","AETRTEM","TREATMENT EMERGENT FLAG","N","DERIVED","CLINICAL STUDY SPONSOR"
"670","CDISCPILOT01","AE","01-709-1309","AESEQ","3","AETRTEM","TREATMENT EMERGENT FLAG","Y","DERIVED","CLINICAL STUDY SPONSOR"
"671","CDISCPILOT01","AE","01-709-1309","AESEQ","4","AETRTEM","TREATMENT EMERGENT FLAG","Y","DERIVED","CLINICAL STUDY SPONSOR"
"672","CDISCPILOT01","AE","01-709-1309","AESEQ","5","AETRTEM","TREATMENT EMERGENT FLAG","Y","DERIVED","CLINICAL STUDY SPONSOR"
"673","CDISCPILOT01","AE","01-709-1309","AESEQ","6","AETRTEM","TREATMENT EMERGENT FLAG","Y","DERIVED","CLINICAL STUDY SPONSOR"
"674","CDISCPILOT01","AE","01-709-1309","AESEQ","7","AETRTEM","TREATMENT EMERGENT FLAG","Y","DERIVED","CLINICAL STUDY SPONSOR"
"675","CDISCPILOT01","AE","01-709-1309","AESEQ","8","AETRTEM","TREATMENT EMERGENT FLAG","Y","DERIVED","CLINICAL STUDY SPONSOR"
"676","CDISCPILOT01","AE","01-709-1309","AESEQ","9","AETRTEM","TREATMENT EMERGENT FLAG","Y","DERIVED","CLINICAL STUDY SPONSOR"
"677","CDISCPILOT01","AE","01-709-1312","AESEQ","1","AETRTEM","TREATMENT EMERGENT FLAG","Y","DERIVED","CLINICAL STUDY SPONSOR"
"678","CDISCPILOT01","AE","01-709-1312","AESEQ","2","AETRTEM","TREATMENT EMERGENT FLAG","Y","DERIVED","CLINICAL STUDY SPONSOR"
"679","CDISCPILOT01","AE","01-709-1326","AESEQ","1","AETRTEM","TREATMENT EMERGENT FLAG","Y","DERIVED","CLINICAL STUDY SPONSOR"
"680","CDISCPILOT01","AE","01-709-1326","AESEQ","2","AETRTEM","TREATMENT EMERGENT FLAG","Y","DERIVED","CLINICAL STUDY SPONSOR"
"681","CDISCPILOT01","AE","01-709-1326","AESEQ","3","AETRTEM","TREATMENT EMERGENT FLAG","Y","DERIVED","CLINICAL STUDY SPONSOR"
"682","CDISCPILOT01","AE","01-709-1326","AESEQ","4","AETRTEM","TREATMENT EMERGENT FLAG","Y","DERIVED","CLINICAL STUDY SPONSOR"
"683","CDISCPILOT01","AE","01-709-1326","AESEQ","5","AETRTEM","TREATMENT EMERGENT FLAG","Y","DERIVED","CLINICAL STUDY SPONSOR"
"684","CDISCPILOT01","AE","01-709-1326","AESEQ","6","AETRTEM","TREATMENT EMERGENT FLAG","Y","DERIVED","CLINICAL STUDY SPONSOR"
"685","CDISCPILOT01","AE","01-709-1329","AESEQ","1","AETRTEM","TREATMENT EMERGENT FLAG","Y","DERIVED","CLINICAL STUDY SPONSOR"
"686","CDISCPILOT01","AE","01-709-1329","AESEQ","2","AETRTEM","TREATMENT EMERGENT FLAG","Y","DERIVED","CLINICAL STUDY SPONSOR"
"687","CDISCPILOT01","AE","01-709-1339","AESEQ","1","AETRTEM","TREATMENT EMERGENT FLAG","N","DERIVED","CLINICAL STUDY SPONSOR"
"688","CDISCPILOT01","AE","01-709-1339","AESEQ","2","AETRTEM","TREATMENT EMERGENT FLAG","Y","DERIVED","CLINICAL STUDY SPONSOR"
"689","CDISCPILOT01","AE","01-709-1424","AESEQ","1","AETRTEM","TREATMENT EMERGENT FLAG","Y","DERIVED","CLINICAL STUDY SPONSOR"
"690","CDISCPILOT01","AE","01-710-1002","AESEQ","1","AETRTEM","TREATMENT EMERGENT FLAG","Y","DERIVED","CLINICAL STUDY SPONSOR"
"691","CDISCPILOT01","AE","01-710-1002","AESEQ","2","AETRTEM","TREATMENT EMERGENT FLAG","Y","DERIVED","CLINICAL STUDY SPONSOR"
"692","CDISCPILOT01","AE","01-710-1006","AESEQ","1","AETRTEM","TREATMENT EMERGENT FLAG","Y","DERIVED","CLINICAL STUDY SPONSOR"
"693","CDISCPILOT01","AE","01-710-1006","AESEQ","10","AETRTEM","TREATMENT EMERGENT FLAG","Y","DERIVED","CLINICAL STUDY SPONSOR"
"694","CDISCPILOT01","AE","01-710-1006","AESEQ","11","AETRTEM","TREATMENT EMERGENT FLAG","Y","DERIVED","CLINICAL STUDY SPONSOR"
"695","CDISCPILOT01","AE","01-710-1006","AESEQ","12","AETRTEM","TREATMENT EMERGENT FLAG","Y","DERIVED","CLINICAL STUDY SPONSOR"
"696","CDISCPILOT01","AE","01-710-1006","AESEQ","2","AETRTEM","TREATMENT EMERGENT FLAG","Y","DERIVED","CLINICAL STUDY SPONSOR"
"697","CDISCPILOT01","AE","01-710-1006","AESEQ","3","AETRTEM","TREATMENT EMERGENT FLAG","Y","DERIVED","CLINICAL STUDY SPONSOR"
"698","CDISCPILOT01","AE","01-710-1006","AESEQ","4","AETRTEM","TREATMENT EMERGENT FLAG","Y","DERIVED","CLINICAL STUDY SPONSOR"
"699","CDISCPILOT01","AE","01-710-1006","AESEQ","5","AETRTEM","TREATMENT EMERGENT FLAG","Y","DERIVED","CLINICAL STUDY SPONSOR"
"700","CDISCPILOT01","AE","01-710-1006","AESEQ","6","AETRTEM","TREATMENT EMERGENT FLAG","Y","DERIVED","CLINICAL STUDY SPONSOR"
"701","CDISCPILOT01","AE","01-710-1006","AESEQ","7","AETRTEM","TREATMENT EMERGENT FLAG","Y","DERIVED","CLINICAL STUDY SPONSOR"
"702","CDISCPILOT01","AE","01-710-1006","AESEQ","8","AETRTEM","TREATMENT EMERGENT FLAG","Y","DERIVED","CLINICAL STUDY SPONSOR"
"703","CDISCPILOT01","AE","01-710-1006","AESEQ","9","AETRTEM","TREATMENT EMERGENT FLAG","Y","DERIVED","CLINICAL STUDY SPONSOR"
"704","CDISCPILOT01","AE","01-710-1021","AESEQ","1","AETRTEM","TREATMENT EMERGENT FLAG","Y","DERIVED","CLINICAL STUDY SPONSOR"
"705","CDISCPILOT01","AE","01-710-1021","AESEQ","2","AETRTEM","TREATMENT EMERGENT FLAG","Y","DERIVED","CLINICAL STUDY SPONSOR"
"706","CDISCPILOT01","AE","01-710-1021","AESEQ","3","AETRTEM","TREATMENT EMERGENT FLAG","Y","DERIVED","CLINICAL STUDY SPONSOR"
"707","CDISCPILOT01","AE","01-710-1027","AESEQ","1","AETRTEM","TREATMENT EMERGENT FLAG","Y","DERIVED","CLINICAL STUDY SPONSOR"
"708","CDISCPILOT01","AE","01-710-1027","AESEQ","2","AETRTEM","TREATMENT EMERGENT FLAG","Y","DERIVED","CLINICAL STUDY SPONSOR"
"709","CDISCPILOT01","AE","01-710-1027","AESEQ","3","AETRTEM","TREATMENT EMERGENT FLAG","Y","DERIVED","CLINICAL STUDY SPONSOR"
"710","CDISCPILOT01","AE","01-710-1027","AESEQ","4","AETRTEM","TREATMENT EMERGENT FLAG","Y","DERIVED","CLINICAL STUDY SPONSOR"
"711","CDISCPILOT01","AE","01-710-1045","AESEQ","1","AETRTEM","TREATMENT EMERGENT FLAG","Y","DERIVED","CLINICAL STUDY SPONSOR"
"712","CDISCPILOT01","AE","01-710-1045","AESEQ","10","AETRTEM","TREATMENT EMERGENT FLAG","Y","DERIVED","CLINICAL STUDY SPONSOR"
"713","CDISCPILOT01","AE","01-710-1045","AESEQ","11","AETRTEM","TREATMENT EMERGENT FLAG","Y","DERIVED","CLINICAL STUDY SPONSOR"
"714","CDISCPILOT01","AE","01-710-1045","AESEQ","12","AETRTEM","TREATMENT EMERGENT FLAG","Y","DERIVED","CLINICAL STUDY SPONSOR"
"715","CDISCPILOT01","AE","01-710-1045","AESEQ","13","AETRTEM","TREATMENT EMERGENT FLAG","Y","DERIVED","CLINICAL STUDY SPONSOR"
"716","CDISCPILOT01","AE","01-710-1045","AESEQ","2","AETRTEM","TREATMENT EMERGENT FLAG","Y","DERIVED","CLINICAL STUDY SPONSOR"
"717","CDISCPILOT01","AE","01-710-1045","AESEQ","3","AETRTEM","TREATMENT EMERGENT FLAG","Y","DERIVED","CLINICAL STUDY SPONSOR"
"718","CDISCPILOT01","AE","01-710-1045","AESEQ","4","AETRTEM","TREATMENT EMERGENT FLAG","Y","DERIVED","CLINICAL STUDY SPONSOR"
"719","CDISCPILOT01","AE","01-710-1045","AESEQ","5","AETRTEM","TREATMENT EMERGENT FLAG","Y","DERIVED","CLINICAL STUDY SPONSOR"
"720","CDISCPILOT01","AE","01-710-1045","AESEQ","6","AETRTEM","TREATMENT EMERGENT FLAG","Y","DERIVED","CLINICAL STUDY SPONSOR"
"721","CDISCPILOT01","AE","01-710-1045","AESEQ","7","AETRTEM","TREATMENT EMERGENT FLAG","Y","DERIVED","CLINICAL STUDY SPONSOR"
"722","CDISCPILOT01","AE","01-710-1045","AESEQ","8","AETRTEM","TREATMENT EMERGENT FLAG","Y","DERIVED","CLINICAL STUDY SPONSOR"
"723","CDISCPILOT01","AE","01-710-1045","AESEQ","9","AETRTEM","TREATMENT EMERGENT FLAG","Y","DERIVED","CLINICAL STUDY SPONSOR"
"724","CDISCPILOT01","AE","01-710-1053","AESEQ","1","AETRTEM","TREATMENT EMERGENT FLAG","Y","DERIVED","CLINICAL STUDY SPONSOR"
"725","CDISCPILOT01","AE","01-710-1053","AESEQ","2","AETRTEM","TREATMENT EMERGENT FLAG","Y","DERIVED","CLINICAL STUDY SPONSOR"
"726","CDISCPILOT01","AE","01-710-1053","AESEQ","3","AETRTEM","TREATMENT EMERGENT FLAG","Y","DERIVED","CLINICAL STUDY SPONSOR"
"727","CDISCPILOT01","AE","01-710-1053","AESEQ","4","AETRTEM","TREATMENT EMERGENT FLAG","Y","DERIVED","CLINICAL STUDY SPONSOR"
"728","CDISCPILOT01","AE","01-710-1060","AESEQ","1","AETRTEM","TREATMENT EMERGENT FLAG","Y","DERIVED","CLINICAL STUDY SPONSOR"
"729","CDISCPILOT01","AE","01-710-1060","AESEQ","2","AETRTEM","TREATMENT EMERGENT FLAG","Y","DERIVED","CLINICAL STUDY SPONSOR"
"730","CDISCPILOT01","AE","01-710-1060","AESEQ","3","AETRTEM","TREATMENT EMERGENT FLAG","Y","DERIVED","CLINICAL STUDY SPONSOR"
"731","CDISCPILOT01","AE","01-710-1060","AESEQ","4","AETRTEM","TREATMENT EMERGENT FLAG","Y","DERIVED","CLINICAL STUDY SPONSOR"
"732","CDISCPILOT01","AE","01-710-1060","AESEQ","5","AETRTEM","TREATMENT EMERGENT FLAG","Y","DERIVED","CLINICAL STUDY SPONSOR"
"733","CDISCPILOT01","AE","01-710-1060","AESEQ","6","AETRTEM","TREATMENT EMERGENT FLAG","Y","DERIVED","CLINICAL STUDY SPONSOR"
"734","CDISCPILOT01","AE","01-710-1060","AESEQ","7","AETRTEM","TREATMENT EMERGENT FLAG","Y","DERIVED","CLINICAL STUDY SPONSOR"
"735","CDISCPILOT01","AE","01-710-1060","AESEQ","8","AETRTEM","TREATMENT EMERGENT FLAG","Y","DERIVED","CLINICAL STUDY SPONSOR"
"736","CDISCPILOT01","AE","01-710-1070","AESEQ","1","AETRTEM","TREATMENT EMERGENT FLAG","Y","DERIVED","CLINICAL STUDY SPONSOR"
"737","CDISCPILOT01","AE","01-710-1070","AESEQ","2","AETRTEM","TREATMENT EMERGENT FLAG","Y","DERIVED","CLINICAL STUDY SPONSOR"
"738","CDISCPILOT01","AE","01-710-1070","AESEQ","3","AETRTEM","TREATMENT EMERGENT FLAG","Y","DERIVED","CLINICAL STUDY SPONSOR"
"739","CDISCPILOT01","AE","01-710-1070","AESEQ","4","AETRTEM","TREATMENT EMERGENT FLAG","Y","DERIVED","CLINICAL STUDY SPONSOR"
"740","CDISCPILOT01","AE","01-710-1070","AESEQ","5","AETRTEM","TREATMENT EMERGENT FLAG","Y","DERIVED","CLINICAL STUDY SPONSOR"
"741","CDISCPILOT01","AE","01-710-1070","AESEQ","6","AETRTEM","TREATMENT EMERGENT FLAG","Y","DERIVED","CLINICAL STUDY SPONSOR"
"742","CDISCPILOT01","AE","01-710-1077","AESEQ","1","AETRTEM","TREATMENT EMERGENT FLAG","Y","DERIVED","CLINICAL STUDY SPONSOR"
"743","CDISCPILOT01","AE","01-710-1077","AESEQ","2","AETRTEM","TREATMENT EMERGENT FLAG","Y","DERIVED","CLINICAL STUDY SPONSOR"
"744","CDISCPILOT01","AE","01-710-1077","AESEQ","3","AETRTEM","TREATMENT EMERGENT FLAG","Y","DERIVED","CLINICAL STUDY SPONSOR"
"745","CDISCPILOT01","AE","01-710-1077","AESEQ","4","AETRTEM","TREATMENT EMERGENT FLAG","N","DERIVED","CLINICAL STUDY SPONSOR"
"746","CDISCPILOT01","AE","01-710-1077","AESEQ","5","AETRTEM","TREATMENT EMERGENT FLAG","N","DERIVED","CLINICAL STUDY SPONSOR"
"747","CDISCPILOT01","AE","01-710-1083","AESEQ","1","AETRTEM","TREATMENT EMERGENT FLAG","Y","DERIVED","CLINICAL STUDY SPONSOR"
"748","CDISCPILOT01","AE","01-710-1137","AESEQ","1","AETRTEM","TREATMENT EMERGENT FLAG","Y","DERIVED","CLINICAL STUDY SPONSOR"
"749","CDISCPILOT01","AE","01-710-1137","AESEQ","2","AETRTEM","TREATMENT EMERGENT FLAG","Y","DERIVED","CLINICAL STUDY SPONSOR"
"750","CDISCPILOT01","AE","01-710-1137","AESEQ","3","AETRTEM","TREATMENT EMERGENT FLAG","Y","DERIVED","CLINICAL STUDY SPONSOR"
"751","CDISCPILOT01","AE","01-710-1137","AESEQ","4","AETRTEM","TREATMENT EMERGENT FLAG","Y","DERIVED","CLINICAL STUDY SPONSOR"
"752","CDISCPILOT01","AE","01-710-1142","AESEQ","1","AETRTEM","TREATMENT EMERGENT FLAG","Y","DERIVED","CLINICAL STUDY SPONSOR"
"753","CDISCPILOT01","AE","01-710-1142","AESEQ","2","AETRTEM","TREATMENT EMERGENT FLAG","Y","DERIVED","CLINICAL STUDY SPONSOR"
"754","CDISCPILOT01","AE","01-710-1142","AESEQ","3","AETRTEM","TREATMENT EMERGENT FLAG","Y","DERIVED","CLINICAL STUDY SPONSOR"
"755","CDISCPILOT01","AE","01-710-1142","AESEQ","4","AETRTEM","TREATMENT EMERGENT FLAG","Y","DERIVED","CLINICAL STUDY SPONSOR"
"756","CDISCPILOT01","AE","01-710-1142","AESEQ","5","AETRTEM","TREATMENT EMERGENT FLAG","Y","DERIVED","CLINICAL STUDY SPONSOR"
"757","CDISCPILOT01","AE","01-710-1154","AESEQ","1","AETRTEM","TREATMENT EMERGENT FLAG","Y","DERIVED","CLINICAL STUDY SPONSOR"
"758","CDISCPILOT01","AE","01-710-1154","AESEQ","2","AETRTEM","TREATMENT EMERGENT FLAG","Y","DERIVED","CLINICAL STUDY SPONSOR"
"759","CDISCPILOT01","AE","01-710-1166","AESEQ","1","AETRTEM","TREATMENT EMERGENT FLAG","Y","DERIVED","CLINICAL STUDY SPONSOR"
"760","CDISCPILOT01","AE","01-710-1166","AESEQ","2","AETRTEM","TREATMENT EMERGENT FLAG","Y","DERIVED","CLINICAL STUDY SPONSOR"
"761","CDISCPILOT01","AE","01-710-1166","AESEQ","3","AETRTEM","TREATMENT EMERGENT FLAG","Y","DERIVED","CLINICAL STUDY SPONSOR"
"762","CDISCPILOT01","AE","01-710-1166","AESEQ","4","AETRTEM","TREATMENT EMERGENT FLAG","Y","DERIVED","CLINICAL STUDY SPONSOR"
"763","CDISCPILOT01","AE","01-710-1166","AESEQ","5","AETRTEM","TREATMENT EMERGENT FLAG","Y","DERIVED","CLINICAL STUDY SPONSOR"
"764","CDISCPILOT01","AE","01-710-1183","AESEQ","1","AETRTEM","TREATMENT EMERGENT FLAG","Y","DERIVED","CLINICAL STUDY SPONSOR"
"765","CDISCPILOT01","AE","01-710-1183","AESEQ","2","AETRTEM","TREATMENT EMERGENT FLAG","Y","DERIVED","CLINICAL STUDY SPONSOR"
"766","CDISCPILOT01","AE","01-710-1187","AESEQ","1","AETRTEM","TREATMENT EMERGENT FLAG","Y","DERIVED","CLINICAL STUDY SPONSOR"
"767","CDISCPILOT01","AE","01-710-1235","AESEQ","1","AETRTEM","TREATMENT EMERGENT FLAG","Y","DERIVED","CLINICAL STUDY SPONSOR"
"768","CDISCPILOT01","AE","01-710-1235","AESEQ","2","AETRTEM","TREATMENT EMERGENT FLAG","Y","DERIVED","CLINICAL STUDY SPONSOR"
"769","CDISCPILOT01","AE","01-710-1235","AESEQ","3","AETRTEM","TREATMENT EMERGENT FLAG","Y","DERIVED","CLINICAL STUDY SPONSOR"
"770","CDISCPILOT01","AE","01-710-1249","AESEQ","1","AETRTEM","TREATMENT EMERGENT FLAG","Y","DERIVED","CLINICAL STUDY SPONSOR"
"771","CDISCPILOT01","AE","01-710-1249","AESEQ","2","AETRTEM","TREATMENT EMERGENT FLAG","Y","DERIVED","CLINICAL STUDY SPONSOR"
"772","CDISCPILOT01","AE","01-710-1249","AESEQ","3","AETRTEM","TREATMENT EMERGENT FLAG","Y","DERIVED","CLINICAL STUDY SPONSOR"
"773","CDISCPILOT01","AE","01-710-1249","AESEQ","4","AETRTEM","TREATMENT EMERGENT FLAG","Y","DERIVED","CLINICAL STUDY SPONSOR"
"774","CDISCPILOT01","AE","01-710-1264","AESEQ","1","AETRTEM","TREATMENT EMERGENT FLAG","Y","DERIVED","CLINICAL STUDY SPONSOR"
"775","CDISCPILOT01","AE","01-710-1264","AESEQ","2","AETRTEM","TREATMENT EMERGENT FLAG","Y","DERIVED","CLINICAL STUDY SPONSOR"
"776","CDISCPILOT01","AE","01-710-1264","AESEQ","3","AETRTEM","TREATMENT EMERGENT FLAG","Y","DERIVED","CLINICAL STUDY SPONSOR"
"777","CDISCPILOT01","AE","01-710-1264","AESEQ","4","AETRTEM","TREATMENT EMERGENT FLAG","Y","DERIVED","CLINICAL STUDY SPONSOR"
"778","CDISCPILOT01","AE","01-710-1264","AESEQ","5","AETRTEM","TREATMENT EMERGENT FLAG","Y","DERIVED","CLINICAL STUDY SPONSOR"
"779","CDISCPILOT01","AE","01-710-1264","AESEQ","6","AETRTEM","TREATMENT EMERGENT FLAG","Y","DERIVED","CLINICAL STUDY SPONSOR"
"780","CDISCPILOT01","AE","01-710-1264","AESEQ","7","AETRTEM","TREATMENT EMERGENT FLAG","Y","DERIVED","CLINICAL STUDY SPONSOR"
"781","CDISCPILOT01","AE","01-710-1264","AESEQ","8","AETRTEM","TREATMENT EMERGENT FLAG","Y","DERIVED","CLINICAL STUDY SPONSOR"
"782","CDISCPILOT01","AE","01-710-1264","AESEQ","9","AETRTEM","TREATMENT EMERGENT FLAG","Y","DERIVED","CLINICAL STUDY SPONSOR"
"783","CDISCPILOT01","AE","01-710-1270","AESEQ","1","AETRTEM","TREATMENT EMERGENT FLAG","Y","DERIVED","CLINICAL STUDY SPONSOR"
"784","CDISCPILOT01","AE","01-710-1270","AESEQ","2","AETRTEM","TREATMENT EMERGENT FLAG","Y","DERIVED","CLINICAL STUDY SPONSOR"
"785","CDISCPILOT01","AE","01-710-1271","AESEQ","1","AETRTEM","TREATMENT EMERGENT FLAG","Y","DERIVED","CLINICAL STUDY SPONSOR"
"786","CDISCPILOT01","AE","01-710-1271","AESEQ","2","AETRTEM","TREATMENT EMERGENT FLAG","Y","DERIVED","CLINICAL STUDY SPONSOR"
"787","CDISCPILOT01","AE","01-710-1271","AESEQ","3","AETRTEM","TREATMENT EMERGENT FLAG","Y","DERIVED","CLINICAL STUDY SPONSOR"
"788","CDISCPILOT01","AE","01-710-1271","AESEQ","4","AETRTEM","TREATMENT EMERGENT FLAG","Y","DERIVED","CLINICAL STUDY SPONSOR"
"789","CDISCPILOT01","AE","01-710-1271","AESEQ","5","AETRTEM","TREATMENT EMERGENT FLAG","Y","DERIVED","CLINICAL STUDY SPONSOR"
"790","CDISCPILOT01","AE","01-710-1278","AESEQ","1","AETRTEM","TREATMENT EMERGENT FLAG","Y","DERIVED","CLINICAL STUDY SPONSOR"
"791","CDISCPILOT01","AE","01-710-1278","AESEQ","2","AETRTEM","TREATMENT EMERGENT FLAG","Y","DERIVED","CLINICAL STUDY SPONSOR"
"792","CDISCPILOT01","AE","01-710-1278","AESEQ","3","AETRTEM","TREATMENT EMERGENT FLAG","Y","DERIVED","CLINICAL STUDY SPONSOR"
"793","CDISCPILOT01","AE","01-710-1278","AESEQ","4","AETRTEM","TREATMENT EMERGENT FLAG","Y","DERIVED","CLINICAL STUDY SPONSOR"
"794","CDISCPILOT01","AE","01-710-1278","AESEQ","5","AETRTEM","TREATMENT EMERGENT FLAG","Y","DERIVED","CLINICAL STUDY SPONSOR"
"795","CDISCPILOT01","AE","01-710-1278","AESEQ","6","AETRTEM","TREATMENT EMERGENT FLAG","Y","DERIVED","CLINICAL STUDY SPONSOR"
"796","CDISCPILOT01","AE","01-710-1278","AESEQ","7","AETRTEM","TREATMENT EMERGENT FLAG","Y","DERIVED","CLINICAL STUDY SPONSOR"
"797","CDISCPILOT01","AE","01-710-1300","AESEQ","1","AETRTEM","TREATMENT EMERGENT FLAG","Y","DERIVED","CLINICAL STUDY SPONSOR"
"798","CDISCPILOT01","AE","01-710-1300","AESEQ","2","AETRTEM","TREATMENT EMERGENT FLAG","Y","DERIVED","CLINICAL STUDY SPONSOR"
"799","CDISCPILOT01","AE","01-710-1300","AESEQ","3","AETRTEM","TREATMENT EMERGENT FLAG","Y","DERIVED","CLINICAL STUDY SPONSOR"
"800","CDISCPILOT01","AE","01-710-1300","AESEQ","4","AETRTEM","TREATMENT EMERGENT FLAG","Y","DERIVED","CLINICAL STUDY SPONSOR"
"801","CDISCPILOT01","AE","01-710-1314","AESEQ","1","AETRTEM","TREATMENT EMERGENT FLAG","Y","DERIVED","CLINICAL STUDY SPONSOR"
"802","CDISCPILOT01","AE","01-710-1314","AESEQ","2","AETRTEM","TREATMENT EMERGENT FLAG","Y","DERIVED","CLINICAL STUDY SPONSOR"
"803","CDISCPILOT01","AE","01-710-1315","AESEQ","1","AETRTEM","TREATMENT EMERGENT FLAG","N","DERIVED","CLINICAL STUDY SPONSOR"
"804","CDISCPILOT01","AE","01-710-1315","AESEQ","2","AETRTEM","TREATMENT EMERGENT FLAG","Y","DERIVED","CLINICAL STUDY SPONSOR"
"805","CDISCPILOT01","AE","01-710-1315","AESEQ","3","AETRTEM","TREATMENT EMERGENT FLAG","Y","DERIVED","CLINICAL STUDY SPONSOR"
"806","CDISCPILOT01","AE","01-710-1315","AESEQ","4","AETRTEM","TREATMENT EMERGENT FLAG","Y","DERIVED","CLINICAL STUDY SPONSOR"
"807","CDISCPILOT01","AE","01-710-1315","AESEQ","5","AETRTEM","TREATMENT EMERGENT FLAG","Y","DERIVED","CLINICAL STUDY SPONSOR"
"808","CDISCPILOT01","AE","01-710-1315","AESEQ","6","AETRTEM","TREATMENT EMERGENT FLAG","Y","DERIVED","CLINICAL STUDY SPONSOR"
"809","CDISCPILOT01","AE","01-710-1315","AESEQ","7","AETRTEM","TREATMENT EMERGENT FLAG","Y","DERIVED","CLINICAL STUDY SPONSOR"
"810","CDISCPILOT01","AE","01-710-1354","AESEQ","1","AETRTEM","TREATMENT EMERGENT FLAG","Y","DERIVED","CLINICAL STUDY SPONSOR"
"811","CDISCPILOT01","AE","01-710-1354","AESEQ","2","AETRTEM","TREATMENT EMERGENT FLAG","Y","DERIVED","CLINICAL STUDY SPONSOR"
"812","CDISCPILOT01","AE","01-710-1358","AESEQ","1","AETRTEM","TREATMENT EMERGENT FLAG","Y","DERIVED","CLINICAL STUDY SPONSOR"
"813","CDISCPILOT01","AE","01-710-1358","AESEQ","2","AETRTEM","TREATMENT EMERGENT FLAG","Y","DERIVED","CLINICAL STUDY SPONSOR"
"814","CDISCPILOT01","AE","01-710-1358","AESEQ","3","AETRTEM","TREATMENT EMERGENT FLAG","Y","DERIVED","CLINICAL STUDY SPONSOR"
"815","CDISCPILOT01","AE","01-710-1368","AESEQ","1","AETRTEM","TREATMENT EMERGENT FLAG","Y","DERIVED","CLINICAL STUDY SPONSOR"
"816","CDISCPILOT01","AE","01-710-1368","AESEQ","2","AETRTEM","TREATMENT EMERGENT FLAG","Y","DERIVED","CLINICAL STUDY SPONSOR"
"817","CDISCPILOT01","AE","01-710-1368","AESEQ","3","AETRTEM","TREATMENT EMERGENT FLAG","Y","DERIVED","CLINICAL STUDY SPONSOR"
"818","CDISCPILOT01","AE","01-710-1368","AESEQ","4","AETRTEM","TREATMENT EMERGENT FLAG","Y","DERIVED","CLINICAL STUDY SPONSOR"
"819","CDISCPILOT01","AE","01-710-1385","AESEQ","1","AETRTEM","TREATMENT EMERGENT FLAG","Y","DERIVED","CLINICAL STUDY SPONSOR"
"820","CDISCPILOT01","AE","01-710-1385","AESEQ","2","AETRTEM","TREATMENT EMERGENT FLAG","Y","DERIVED","CLINICAL STUDY SPONSOR"
"821","CDISCPILOT01","AE","01-710-1385","AESEQ","3","AETRTEM","TREATMENT EMERGENT FLAG","Y","DERIVED","CLINICAL STUDY SPONSOR"
"822","CDISCPILOT01","AE","01-710-1385","AESEQ","4","AETRTEM","TREATMENT EMERGENT FLAG","Y","DERIVED","CLINICAL STUDY SPONSOR"
"823","CDISCPILOT01","AE","01-710-1385","AESEQ","5","AETRTEM","TREATMENT EMERGENT FLAG","Y","DERIVED","CLINICAL STUDY SPONSOR"
"824","CDISCPILOT01","AE","01-710-1385","AESEQ","6","AETRTEM","TREATMENT EMERGENT FLAG","Y","DERIVED","CLINICAL STUDY SPONSOR"
"825","CDISCPILOT01","AE","01-710-1385","AESEQ","7","AETRTEM","TREATMENT EMERGENT FLAG","Y","DERIVED","CLINICAL STUDY SPONSOR"
"826","CDISCPILOT01","AE","01-710-1385","AESEQ","8","AETRTEM","TREATMENT EMERGENT FLAG","Y","DERIVED","CLINICAL STUDY SPONSOR"
"827","CDISCPILOT01","AE","01-710-1408","AESEQ","1","AETRTEM","TREATMENT EMERGENT FLAG","Y","DERIVED","CLINICAL STUDY SPONSOR"
"828","CDISCPILOT01","AE","01-710-1408","AESEQ","2","AETRTEM","TREATMENT EMERGENT FLAG","Y","DERIVED","CLINICAL STUDY SPONSOR"
"829","CDISCPILOT01","AE","01-710-1408","AESEQ","3","AETRTEM","TREATMENT EMERGENT FLAG","Y","DERIVED","CLINICAL STUDY SPONSOR"
"830","CDISCPILOT01","AE","01-710-1408","AESEQ","4","AETRTEM","TREATMENT EMERGENT FLAG","Y","DERIVED","CLINICAL STUDY SPONSOR"
"831","CDISCPILOT01","AE","01-711-1012","AESEQ","1","AETRTEM","TREATMENT EMERGENT FLAG","Y","DERIVED","CLINICAL STUDY SPONSOR"
"832","CDISCPILOT01","AE","01-711-1012","AESEQ","2","AETRTEM","TREATMENT EMERGENT FLAG","Y","DERIVED","CLINICAL STUDY SPONSOR"
"833","CDISCPILOT01","AE","01-711-1012","AESEQ","3","AETRTEM","TREATMENT EMERGENT FLAG","Y","DERIVED","CLINICAL STUDY SPONSOR"
"834","CDISCPILOT01","AE","01-711-1012","AESEQ","4","AETRTEM","TREATMENT EMERGENT FLAG","Y","DERIVED","CLINICAL STUDY SPONSOR"
"835","CDISCPILOT01","AE","01-711-1012","AESEQ","5","AETRTEM","TREATMENT EMERGENT FLAG","Y","DERIVED","CLINICAL STUDY SPONSOR"
"836","CDISCPILOT01","AE","01-711-1012","AESEQ","6","AETRTEM","TREATMENT EMERGENT FLAG","Y","DERIVED","CLINICAL STUDY SPONSOR"
"837","CDISCPILOT01","AE","01-711-1012","AESEQ","7","AETRTEM","TREATMENT EMERGENT FLAG","Y","DERIVED","CLINICAL STUDY SPONSOR"
"838","CDISCPILOT01","AE","01-711-1036","AESEQ","1","AETRTEM","TREATMENT EMERGENT FLAG","Y","DERIVED","CLINICAL STUDY SPONSOR"
"839","CDISCPILOT01","AE","01-711-1036","AESEQ","2","AETRTEM","TREATMENT EMERGENT FLAG","Y","DERIVED","CLINICAL STUDY SPONSOR"
"840","CDISCPILOT01","AE","01-711-1036","AESEQ","3","AETRTEM","TREATMENT EMERGENT FLAG","Y","DERIVED","CLINICAL STUDY SPONSOR"
"841","CDISCPILOT01","AE","01-711-1036","AESEQ","4","AETRTEM","TREATMENT EMERGENT FLAG","Y","DERIVED","CLINICAL STUDY SPONSOR"
"842","CDISCPILOT01","AE","01-711-1143","AESEQ","1","AETRTEM","TREATMENT EMERGENT FLAG","N","DERIVED","CLINICAL STUDY SPONSOR"
"843","CDISCPILOT01","AE","01-711-1143","AESEQ","10","AETRTEM","TREATMENT EMERGENT FLAG","Y","DERIVED","CLINICAL STUDY SPONSOR"
"844","CDISCPILOT01","AE","01-711-1143","AESEQ","11","AETRTEM","TREATMENT EMERGENT FLAG","Y","DERIVED","CLINICAL STUDY SPONSOR"
"845","CDISCPILOT01","AE","01-711-1143","AESEQ","12","AETRTEM","TREATMENT EMERGENT FLAG","Y","DERIVED","CLINICAL STUDY SPONSOR"
"846","CDISCPILOT01","AE","01-711-1143","AESEQ","13","AETRTEM","TREATMENT EMERGENT FLAG","Y","DERIVED","CLINICAL STUDY SPONSOR"
"847","CDISCPILOT01","AE","01-711-1143","AESEQ","14","AETRTEM","TREATMENT EMERGENT FLAG","Y","DERIVED","CLINICAL STUDY SPONSOR"
"848","CDISCPILOT01","AE","01-711-1143","AESEQ","2","AETRTEM","TREATMENT EMERGENT FLAG","Y","DERIVED","CLINICAL STUDY SPONSOR"
"849","CDISCPILOT01","AE","01-711-1143","AESEQ","3","AETRTEM","TREATMENT EMERGENT FLAG","Y","DERIVED","CLINICAL STUDY SPONSOR"
"850","CDISCPILOT01","AE","01-711-1143","AESEQ","4","AETRTEM","TREATMENT EMERGENT FLAG","Y","DERIVED","CLINICAL STUDY SPONSOR"
"851","CDISCPILOT01","AE","01-711-1143","AESEQ","5","AETRTEM","TREATMENT EMERGENT FLAG","Y","DERIVED","CLINICAL STUDY SPONSOR"
"852","CDISCPILOT01","AE","01-711-1143","AESEQ","6","AETRTEM","TREATMENT EMERGENT FLAG","Y","DERIVED","CLINICAL STUDY SPONSOR"
"853","CDISCPILOT01","AE","01-711-1143","AESEQ","7","AETRTEM","TREATMENT EMERGENT FLAG","Y","DERIVED","CLINICAL STUDY SPONSOR"
"854","CDISCPILOT01","AE","01-711-1143","AESEQ","8","AETRTEM","TREATMENT EMERGENT FLAG","Y","DERIVED","CLINICAL STUDY SPONSOR"
"855","CDISCPILOT01","AE","01-711-1143","AESEQ","9","AETRTEM","TREATMENT EMERGENT FLAG","Y","DERIVED","CLINICAL STUDY SPONSOR"
"856","CDISCPILOT01","AE","01-711-1433","AESEQ","1","AETRTEM","TREATMENT EMERGENT FLAG","N","DERIVED","CLINICAL STUDY SPONSOR"
"857","CDISCPILOT01","AE","01-711-1433","AESEQ","2","AETRTEM","TREATMENT EMERGENT FLAG","N","DERIVED","CLINICAL STUDY SPONSOR"
"858","CDISCPILOT01","AE","01-711-1433","AESEQ","3","AETRTEM","TREATMENT EMERGENT FLAG","Y","DERIVED","CLINICAL STUDY SPONSOR"
"859","CDISCPILOT01","AE","01-713-1043","AESEQ","1","AETRTEM","TREATMENT EMERGENT FLAG","Y","DERIVED","CLINICAL STUDY SPONSOR"
"860","CDISCPILOT01","AE","01-713-1043","AESEQ","2","AETRTEM","TREATMENT EMERGENT FLAG","Y","DERIVED","CLINICAL STUDY SPONSOR"
"861","CDISCPILOT01","AE","01-713-1043","AESEQ","3","AETRTEM","TREATMENT EMERGENT FLAG","Y","DERIVED","CLINICAL STUDY SPONSOR"
"862","CDISCPILOT01","AE","01-713-1043","AESEQ","4","AETRTEM","TREATMENT EMERGENT FLAG","Y","DERIVED","CLINICAL STUDY SPONSOR"
"863","CDISCPILOT01","AE","01-713-1043","AESEQ","5","AETRTEM","TREATMENT EMERGENT FLAG","Y","DERIVED","CLINICAL STUDY SPONSOR"
"864","CDISCPILOT01","AE","01-713-1043","AESEQ","6","AETRTEM","TREATMENT EMERGENT FLAG","Y","DERIVED","CLINICAL STUDY SPONSOR"
"865","CDISCPILOT01","AE","01-713-1043","AESEQ","7","AETRTEM","TREATMENT EMERGENT FLAG","Y","DERIVED","CLINICAL STUDY SPONSOR"
"866","CDISCPILOT01","AE","01-713-1073","AESEQ","1","AETRTEM","TREATMENT EMERGENT FLAG","Y","DERIVED","CLINICAL STUDY SPONSOR"
"867","CDISCPILOT01","AE","01-713-1141","AESEQ","1","AETRTEM","TREATMENT EMERGENT FLAG","Y","DERIVED","CLINICAL STUDY SPONSOR"
"868","CDISCPILOT01","AE","01-713-1141","AESEQ","2","AETRTEM","TREATMENT EMERGENT FLAG","Y","DERIVED","CLINICAL STUDY SPONSOR"
"869","CDISCPILOT01","AE","01-713-1141","AESEQ","3","AETRTEM","TREATMENT EMERGENT FLAG","Y","DERIVED","CLINICAL STUDY SPONSOR"
"870","CDISCPILOT01","AE","01-713-1141","AESEQ","4","AETRTEM","TREATMENT EMERGENT FLAG","Y","DERIVED","CLINICAL STUDY SPONSOR"
"871","CDISCPILOT01","AE","01-713-1179","AESEQ","1","AETRTEM","TREATMENT EMERGENT FLAG","Y","DERIVED","CLINICAL STUDY SPONSOR"
"872","CDISCPILOT01","AE","01-713-1179","AESEQ","10","AETRTEM","TREATMENT EMERGENT FLAG","Y","DERIVED","CLINICAL STUDY SPONSOR"
"873","CDISCPILOT01","AE","01-713-1179","AESEQ","11","AETRTEM","TREATMENT EMERGENT FLAG","Y","DERIVED","CLINICAL STUDY SPONSOR"
"874","CDISCPILOT01","AE","01-713-1179","AESEQ","12","AETRTEM","TREATMENT EMERGENT FLAG","Y","DERIVED","CLINICAL STUDY SPONSOR"
"875","CDISCPILOT01","AE","01-713-1179","AESEQ","13","AETRTEM","TREATMENT EMERGENT FLAG","Y","DERIVED","CLINICAL STUDY SPONSOR"
"876","CDISCPILOT01","AE","01-713-1179","AESEQ","14","AETRTEM","TREATMENT EMERGENT FLAG","Y","DERIVED","CLINICAL STUDY SPONSOR"
"877","CDISCPILOT01","AE","01-713-1179","AESEQ","15","AETRTEM","TREATMENT EMERGENT FLAG","Y","DERIVED","CLINICAL STUDY SPONSOR"
"878","CDISCPILOT01","AE","01-713-1179","AESEQ","2","AETRTEM","TREATMENT EMERGENT FLAG","Y","DERIVED","CLINICAL STUDY SPONSOR"
"879","CDISCPILOT01","AE","01-713-1179","AESEQ","3","AETRTEM","TREATMENT EMERGENT FLAG","Y","DERIVED","CLINICAL STUDY SPONSOR"
"880","CDISCPILOT01","AE","01-713-1179","AESEQ","4","AETRTEM","TREATMENT EMERGENT FLAG","Y","DERIVED","CLINICAL STUDY SPONSOR"
"881","CDISCPILOT01","AE","01-713-1179","AESEQ","5","AETRTEM","TREATMENT EMERGENT FLAG","Y","DERIVED","CLINICAL STUDY SPONSOR"
"882","CDISCPILOT01","AE","01-713-1179","AESEQ","6","AETRTEM","TREATMENT EMERGENT FLAG","Y","DERIVED","CLINICAL STUDY SPONSOR"
"883","CDISCPILOT01","AE","01-713-1179","AESEQ","7","AETRTEM","TREATMENT EMERGENT FLAG","Y","DERIVED","CLINICAL STUDY SPONSOR"
"884","CDISCPILOT01","AE","01-713-1179","AESEQ","8","AETRTEM","TREATMENT EMERGENT FLAG","Y","DERIVED","CLINICAL STUDY SPONSOR"
"885","CDISCPILOT01","AE","01-713-1179","AESEQ","9","AETRTEM","TREATMENT EMERGENT FLAG","Y","DERIVED","CLINICAL STUDY SPONSOR"
"886","CDISCPILOT01","AE","01-713-1209","AESEQ","1","AETRTEM","TREATMENT EMERGENT FLAG","Y","DERIVED","CLINICAL STUDY SPONSOR"
"887","CDISCPILOT01","AE","01-713-1209","AESEQ","2","AETRTEM","TREATMENT EMERGENT FLAG","Y","DERIVED","CLINICAL STUDY SPONSOR"
"888","CDISCPILOT01","AE","01-713-1209","AESEQ","3","AETRTEM","TREATMENT EMERGENT FLAG","Y","DERIVED","CLINICAL STUDY SPONSOR"
"889","CDISCPILOT01","AE","01-713-1209","AESEQ","4","AETRTEM","TREATMENT EMERGENT FLAG","Y","DERIVED","CLINICAL STUDY SPONSOR"
"890","CDISCPILOT01","AE","01-713-1256","AESEQ","1","AETRTEM","TREATMENT EMERGENT FLAG","Y","DERIVED","CLINICAL STUDY SPONSOR"
"891","CDISCPILOT01","AE","01-713-1256","AESEQ","2","AETRTEM","TREATMENT EMERGENT FLAG","Y","DERIVED","CLINICAL STUDY SPONSOR"
"892","CDISCPILOT01","AE","01-713-1269","AESEQ","1","AETRTEM","TREATMENT EMERGENT FLAG","Y","DERIVED","CLINICAL STUDY SPONSOR"
"893","CDISCPILOT01","AE","01-713-1269","AESEQ","2","AETRTEM","TREATMENT EMERGENT FLAG","Y","DERIVED","CLINICAL STUDY SPONSOR"
"894","CDISCPILOT01","AE","01-713-1269","AESEQ","3","AETRTEM","TREATMENT EMERGENT FLAG","Y","DERIVED","CLINICAL STUDY SPONSOR"
"895","CDISCPILOT01","AE","01-713-1269","AESEQ","4","AETRTEM","TREATMENT EMERGENT FLAG","Y","DERIVED","CLINICAL STUDY SPONSOR"
"896","CDISCPILOT01","AE","01-713-1269","AESEQ","5","AETRTEM","TREATMENT EMERGENT FLAG","Y","DERIVED","CLINICAL STUDY SPONSOR"
"897","CDISCPILOT01","AE","01-713-1269","AESEQ","6","AETRTEM","TREATMENT EMERGENT FLAG","Y","DERIVED","CLINICAL STUDY SPONSOR"
"898","CDISCPILOT01","AE","01-713-1448","AESEQ","1","AETRTEM","TREATMENT EMERGENT FLAG","Y","DERIVED","CLINICAL STUDY SPONSOR"
"899","CDISCPILOT01","AE","01-713-1448","AESEQ","2","AETRTEM","TREATMENT EMERGENT FLAG","Y","DERIVED","CLINICAL STUDY SPONSOR"
"900","CDISCPILOT01","AE","01-713-1448","AESEQ","3","AETRTEM","TREATMENT EMERGENT FLAG","Y","DERIVED","CLINICAL STUDY SPONSOR"
"901","CDISCPILOT01","AE","01-713-1448","AESEQ","4","AETRTEM","TREATMENT EMERGENT FLAG","Y","DERIVED","CLINICAL STUDY SPONSOR"
"902","CDISCPILOT01","AE","01-714-1035","AESEQ","1","AETRTEM","TREATMENT EMERGENT FLAG","Y","DERIVED","CLINICAL STUDY SPONSOR"
"903","CDISCPILOT01","AE","01-714-1035","AESEQ","2","AETRTEM","TREATMENT EMERGENT FLAG","Y","DERIVED","CLINICAL STUDY SPONSOR"
"904","CDISCPILOT01","AE","01-714-1035","AESEQ","3","AETRTEM","TREATMENT EMERGENT FLAG","Y","DERIVED","CLINICAL STUDY SPONSOR"
"905","CDISCPILOT01","AE","01-714-1035","AESEQ","4","AETRTEM","TREATMENT EMERGENT FLAG","Y","DERIVED","CLINICAL STUDY SPONSOR"
"906","CDISCPILOT01","AE","01-714-1035","AESEQ","5","AETRTEM","TREATMENT EMERGENT FLAG","Y","DERIVED","CLINICAL STUDY SPONSOR"
"907","CDISCPILOT01","AE","01-714-1035","AESEQ","6","AETRTEM","TREATMENT EMERGENT FLAG","Y","DERIVED","CLINICAL STUDY SPONSOR"
"908","CDISCPILOT01","AE","01-714-1035","AESEQ","7","AETRTEM","TREATMENT EMERGENT FLAG","Y","DERIVED","CLINICAL STUDY SPONSOR"
"909","CDISCPILOT01","AE","01-714-1068","AESEQ","1","AETRTEM","TREATMENT EMERGENT FLAG","Y","DERIVED","CLINICAL STUDY SPONSOR"
"910","CDISCPILOT01","AE","01-714-1068","AESEQ","2","AETRTEM","TREATMENT EMERGENT FLAG","Y","DERIVED","CLINICAL STUDY SPONSOR"
"911","CDISCPILOT01","AE","01-714-1068","AESEQ","3","AETRTEM","TREATMENT EMERGENT FLAG","Y","DERIVED","CLINICAL STUDY SPONSOR"
"912","CDISCPILOT01","AE","01-714-1068","AESEQ","4","AETRTEM","TREATMENT EMERGENT FLAG","Y","DERIVED","CLINICAL STUDY SPONSOR"
"913","CDISCPILOT01","AE","01-714-1068","AESEQ","5","AETRTEM","TREATMENT EMERGENT FLAG","Y","DERIVED","CLINICAL STUDY SPONSOR"
"914","CDISCPILOT01","AE","01-714-1068","AESEQ","6","AETRTEM","TREATMENT EMERGENT FLAG","Y","DERIVED","CLINICAL STUDY SPONSOR"
"915","CDISCPILOT01","AE","01-714-1195","AESEQ","1","AETRTEM","TREATMENT EMERGENT FLAG","Y","DERIVED","CLINICAL STUDY SPONSOR"
"916","CDISCPILOT01","AE","01-714-1195","AESEQ","2","AETRTEM","TREATMENT EMERGENT FLAG","Y","DERIVED","CLINICAL STUDY SPONSOR"
"917","CDISCPILOT01","AE","01-714-1195","AESEQ","3","AETRTEM","TREATMENT EMERGENT FLAG","Y","DERIVED","CLINICAL STUDY SPONSOR"
"918","CDISCPILOT01","AE","01-714-1195","AESEQ","4","AETRTEM","TREATMENT EMERGENT FLAG","Y","DERIVED","CLINICAL STUDY SPONSOR"
"919","CDISCPILOT01","AE","01-714-1195","AESEQ","5","AETRTEM","TREATMENT EMERGENT FLAG","Y","DERIVED","CLINICAL STUDY SPONSOR"
"920","CDISCPILOT01","AE","01-714-1195","AESEQ","6","AETRTEM","TREATMENT EMERGENT FLAG","Y","DERIVED","CLINICAL STUDY SPONSOR"
"921","CDISCPILOT01","AE","01-714-1195","AESEQ","7","AETRTEM","TREATMENT EMERGENT FLAG","Y","DERIVED","CLINICAL STUDY SPONSOR"
"922","CDISCPILOT01","AE","01-714-1195","AESEQ","8","AETRTEM","TREATMENT EMERGENT FLAG","Y","DERIVED","CLINICAL STUDY SPONSOR"
"923","CDISCPILOT01","AE","01-714-1195","AESEQ","9","AETRTEM","TREATMENT EMERGENT FLAG","Y","DERIVED","CLINICAL STUDY SPONSOR"
"924","CDISCPILOT01","AE","01-714-1288","AESEQ","1","AETRTEM","TREATMENT EMERGENT FLAG","Y","DERIVED","CLINICAL STUDY SPONSOR"
"925","CDISCPILOT01","AE","01-714-1288","AESEQ","2","AETRTEM","TREATMENT EMERGENT FLAG","Y","DERIVED","CLINICAL STUDY SPONSOR"
"926","CDISCPILOT01","AE","01-714-1288","AESEQ","3","AETRTEM","TREATMENT EMERGENT FLAG","Y","DERIVED","CLINICAL STUDY SPONSOR"
"927","CDISCPILOT01","AE","01-714-1288","AESEQ","4","AETRTEM","TREATMENT EMERGENT FLAG","Y","DERIVED","CLINICAL STUDY SPONSOR"
"928","CDISCPILOT01","AE","01-714-1288","AESEQ","5","AETRTEM","TREATMENT EMERGENT FLAG","Y","DERIVED","CLINICAL STUDY SPONSOR"
"929","CDISCPILOT01","AE","01-714-1288","AESEQ","6","AETRTEM","TREATMENT EMERGENT FLAG","Y","DERIVED","CLINICAL STUDY SPONSOR"
"930","CDISCPILOT01","AE","01-714-1288","AESEQ","7","AETRTEM","TREATMENT EMERGENT FLAG","Y","DERIVED","CLINICAL STUDY SPONSOR"
"931","CDISCPILOT01","AE","01-714-1288","AESEQ","8","AETRTEM","TREATMENT EMERGENT FLAG","Y","DERIVED","CLINICAL STUDY SPONSOR"
"932","CDISCPILOT01","AE","01-714-1288","AESEQ","9","AETRTEM","TREATMENT EMERGENT FLAG","Y","DERIVED","CLINICAL STUDY SPONSOR"
"933","CDISCPILOT01","AE","01-714-1375","AESEQ","1","AETRTEM","TREATMENT EMERGENT FLAG","Y","DERIVED","CLINICAL STUDY SPONSOR"
"934","CDISCPILOT01","AE","01-714-1375","AESEQ","2","AETRTEM","TREATMENT EMERGENT FLAG","Y","DERIVED","CLINICAL STUDY SPONSOR"
"935","CDISCPILOT01","AE","01-714-1375","AESEQ","3","AETRTEM","TREATMENT EMERGENT FLAG","Y","DERIVED","CLINICAL STUDY SPONSOR"
"936","CDISCPILOT01","AE","01-714-1375","AESEQ","4","AETRTEM","TREATMENT EMERGENT FLAG","Y","DERIVED","CLINICAL STUDY SPONSOR"
"937","CDISCPILOT01","AE","01-714-1375","AESEQ","5","AETRTEM","TREATMENT EMERGENT FLAG","Y","DERIVED","CLINICAL STUDY SPONSOR"
"938","CDISCPILOT01","AE","01-714-1375","AESEQ","6","AETRTEM","TREATMENT EMERGENT FLAG","Y","DERIVED","CLINICAL STUDY SPONSOR"
"939","CDISCPILOT01","AE","01-714-1375","AESEQ","7","AETRTEM","TREATMENT EMERGENT FLAG","Y","DERIVED","CLINICAL STUDY SPONSOR"
"940","CDISCPILOT01","AE","01-714-1375","AESEQ","8","AETRTEM","TREATMENT EMERGENT FLAG","Y","DERIVED","CLINICAL STUDY SPONSOR"
"941","CDISCPILOT01","AE","01-714-1425","AESEQ","1","AETRTEM","TREATMENT EMERGENT FLAG","N","DERIVED","CLINICAL STUDY SPONSOR"
"942","CDISCPILOT01","AE","01-715-1107","AESEQ","1","AETRTEM","TREATMENT EMERGENT FLAG","Y","DERIVED","CLINICAL STUDY SPONSOR"
"943","CDISCPILOT01","AE","01-715-1107","AESEQ","2","AETRTEM","TREATMENT EMERGENT FLAG","Y","DERIVED","CLINICAL STUDY SPONSOR"
"944","CDISCPILOT01","AE","01-715-1107","AESEQ","3","AETRTEM","TREATMENT EMERGENT FLAG","Y","DERIVED","CLINICAL STUDY SPONSOR"
"945","CDISCPILOT01","AE","01-715-1207","AESEQ","1","AETRTEM","TREATMENT EMERGENT FLAG","Y","DERIVED","CLINICAL STUDY SPONSOR"
"946","CDISCPILOT01","AE","01-715-1319","AESEQ","1","AETRTEM","TREATMENT EMERGENT FLAG","Y","DERIVED","CLINICAL STUDY SPONSOR"
"947","CDISCPILOT01","AE","01-715-1321","AESEQ","1","AETRTEM","TREATMENT EMERGENT FLAG","Y","DERIVED","CLINICAL STUDY SPONSOR"
"948","CDISCPILOT01","AE","01-715-1321","AESEQ","2","AETRTEM","TREATMENT EMERGENT FLAG","Y","DERIVED","CLINICAL STUDY SPONSOR"
"949","CDISCPILOT01","AE","01-715-1321","AESEQ","3","AETRTEM","TREATMENT EMERGENT FLAG","Y","DERIVED","CLINICAL STUDY SPONSOR"
"950","CDISCPILOT01","AE","01-715-1321","AESEQ","4","AETRTEM","TREATMENT EMERGENT FLAG","Y","DERIVED","CLINICAL STUDY SPONSOR"
"951","CDISCPILOT01","AE","01-715-1405","AESEQ","1","AETRTEM","TREATMENT EMERGENT FLAG","Y","DERIVED","CLINICAL STUDY SPONSOR"
"952","CDISCPILOT01","AE","01-715-1405","AESEQ","2","AETRTEM","TREATMENT EMERGENT FLAG","Y","DERIVED","CLINICAL STUDY SPONSOR"
"953","CDISCPILOT01","AE","01-715-1405","AESEQ","3","AETRTEM","TREATMENT EMERGENT FLAG","Y","DERIVED","CLINICAL STUDY SPONSOR"
"954","CDISCPILOT01","AE","01-715-1405","AESEQ","4","AETRTEM","TREATMENT EMERGENT FLAG","Y","DERIVED","CLINICAL STUDY SPONSOR"
"955","CDISCPILOT01","AE","01-715-1405","AESEQ","5","AETRTEM","TREATMENT EMERGENT FLAG","Y","DERIVED","CLINICAL STUDY SPONSOR"
"956","CDISCPILOT01","AE","01-715-1405","AESEQ","6","AETRTEM","TREATMENT EMERGENT FLAG","Y","DERIVED","CLINICAL STUDY SPONSOR"
"957","CDISCPILOT01","AE","01-716-1024","AESEQ","1","AETRTEM","TREATMENT EMERGENT FLAG","Y","DERIVED","CLINICAL STUDY SPONSOR"
"958","CDISCPILOT01","AE","01-716-1024","AESEQ","2","AETRTEM","TREATMENT EMERGENT FLAG","Y","DERIVED","CLINICAL STUDY SPONSOR"
"959","CDISCPILOT01","AE","01-716-1024","AESEQ","3","AETRTEM","TREATMENT EMERGENT FLAG","Y","DERIVED","CLINICAL STUDY SPONSOR"
"960","CDISCPILOT01","AE","01-716-1026","AESEQ","1","AETRTEM","TREATMENT EMERGENT FLAG","Y","DERIVED","CLINICAL STUDY SPONSOR"
"961","CDISCPILOT01","AE","01-716-1026","AESEQ","2","AETRTEM","TREATMENT EMERGENT FLAG","Y","DERIVED","CLINICAL STUDY SPONSOR"
"962","CDISCPILOT01","AE","01-716-1026","AESEQ","3","AETRTEM","TREATMENT EMERGENT FLAG","Y","DERIVED","CLINICAL STUDY SPONSOR"
"963","CDISCPILOT01","AE","01-716-1026","AESEQ","4","AETRTEM","TREATMENT EMERGENT FLAG","Y","DERIVED","CLINICAL STUDY SPONSOR"
"964","CDISCPILOT01","AE","01-716-1026","AESEQ","5","AETRTEM","TREATMENT EMERGENT FLAG","Y","DERIVED","CLINICAL STUDY SPONSOR"
"965","CDISCPILOT01","AE","01-716-1026","AESEQ","6","AETRTEM","TREATMENT EMERGENT FLAG","Y","DERIVED","CLINICAL STUDY SPONSOR"
"966","CDISCPILOT01","AE","01-716-1026","AESEQ","7","AETRTEM","TREATMENT EMERGENT FLAG","Y","DERIVED","CLINICAL STUDY SPONSOR"
"967","CDISCPILOT01","AE","01-716-1044","AESEQ","1","AETRTEM","TREATMENT EMERGENT FLAG","Y","DERIVED","CLINICAL STUDY SPONSOR"
"968","CDISCPILOT01","AE","01-716-1044","AESEQ","2","AETRTEM","TREATMENT EMERGENT FLAG","Y","DERIVED","CLINICAL STUDY SPONSOR"
"969","CDISCPILOT01","AE","01-716-1044","AESEQ","3","AETRTEM","TREATMENT EMERGENT FLAG","Y","DERIVED","CLINICAL STUDY SPONSOR"
"970","CDISCPILOT01","AE","01-716-1063","AESEQ","1","AETRTEM","TREATMENT EMERGENT FLAG","Y","DERIVED","CLINICAL STUDY SPONSOR"
"971","CDISCPILOT01","AE","01-716-1063","AESEQ","2","AETRTEM","TREATMENT EMERGENT FLAG","Y","DERIVED","CLINICAL STUDY SPONSOR"
"972","CDISCPILOT01","AE","01-716-1063","AESEQ","3","AETRTEM","TREATMENT EMERGENT FLAG","Y","DERIVED","CLINICAL STUDY SPONSOR"
"973","CDISCPILOT01","AE","01-716-1063","AESEQ","4","AETRTEM","TREATMENT EMERGENT FLAG","Y","DERIVED","CLINICAL STUDY SPONSOR"
"974","CDISCPILOT01","AE","01-716-1063","AESEQ","5","AETRTEM","TREATMENT EMERGENT FLAG","Y","DERIVED","CLINICAL STUDY SPONSOR"
"975","CDISCPILOT01","AE","01-716-1063","AESEQ","6","AETRTEM","TREATMENT EMERGENT FLAG","Y","DERIVED","CLINICAL STUDY SPONSOR"
"976","CDISCPILOT01","AE","01-716-1063","AESEQ","7","AETRTEM","TREATMENT EMERGENT FLAG","Y","DERIVED","CLINICAL STUDY SPONSOR"
"977","CDISCPILOT01","AE","01-716-1071","AESEQ","1","AETRTEM","TREATMENT EMERGENT FLAG","Y","DERIVED","CLINICAL STUDY SPONSOR"
"978","CDISCPILOT01","AE","01-716-1071","AESEQ","2","AETRTEM","TREATMENT EMERGENT FLAG","Y","DERIVED","CLINICAL STUDY SPONSOR"
"979","CDISCPILOT01","AE","01-716-1071","AESEQ","3","AETRTEM","TREATMENT EMERGENT FLAG","Y","DERIVED","CLINICAL STUDY SPONSOR"
"980","CDISCPILOT01","AE","01-716-1094","AESEQ","1","AETRTEM","TREATMENT EMERGENT FLAG","Y","DERIVED","CLINICAL STUDY SPONSOR"
"981","CDISCPILOT01","AE","01-716-1094","AESEQ","2","AETRTEM","TREATMENT EMERGENT FLAG","Y","DERIVED","CLINICAL STUDY SPONSOR"
"982","CDISCPILOT01","AE","01-716-1094","AESEQ","3","AETRTEM","TREATMENT EMERGENT FLAG","Y","DERIVED","CLINICAL STUDY SPONSOR"
"983","CDISCPILOT01","AE","01-716-1103","AESEQ","1","AETRTEM","TREATMENT EMERGENT FLAG","Y","DERIVED","CLINICAL STUDY SPONSOR"
"984","CDISCPILOT01","AE","01-716-1103","AESEQ","2","AETRTEM","TREATMENT EMERGENT FLAG","Y","DERIVED","CLINICAL STUDY SPONSOR"
"985","CDISCPILOT01","AE","01-716-1103","AESEQ","3","AETRTEM","TREATMENT EMERGENT FLAG","Y","DERIVED","CLINICAL STUDY SPONSOR"
"986","CDISCPILOT01","AE","01-716-1103","AESEQ","4","AETRTEM","TREATMENT EMERGENT FLAG","Y","DERIVED","CLINICAL STUDY SPONSOR"
"987","CDISCPILOT01","AE","01-716-1103","AESEQ","5","AETRTEM","TREATMENT EMERGENT FLAG","Y","DERIVED","CLINICAL STUDY SPONSOR"
"988","CDISCPILOT01","AE","01-716-1108","AESEQ","1","AETRTEM","TREATMENT EMERGENT FLAG","Y","DERIVED","CLINICAL STUDY SPONSOR"
"989","CDISCPILOT01","AE","01-716-1108","AESEQ","2","AETRTEM","TREATMENT EMERGENT FLAG","Y","DERIVED","CLINICAL STUDY SPONSOR"
"990","CDISCPILOT01","AE","01-716-1151","AESEQ","1","AETRTEM","TREATMENT EMERGENT FLAG","Y","DERIVED","CLINICAL STUDY SPONSOR"
"991","CDISCPILOT01","AE","01-716-1151","AESEQ","2","AETRTEM","TREATMENT EMERGENT FLAG","Y","DERIVED","CLINICAL STUDY SPONSOR"
"992","CDISCPILOT01","AE","01-716-1151","AESEQ","3","AETRTEM","TREATMENT EMERGENT FLAG","Y","DERIVED","CLINICAL STUDY SPONSOR"
"993","CDISCPILOT01","AE","01-716-1151","AESEQ","4","AETRTEM","TREATMENT EMERGENT FLAG","Y","DERIVED","CLINICAL STUDY SPONSOR"
"994","CDISCPILOT01","AE","01-716-1157","AESEQ","1","AETRTEM","TREATMENT EMERGENT FLAG","Y","DERIVED","CLINICAL STUDY SPONSOR"
"995","CDISCPILOT01","AE","01-716-1157","AESEQ","2","AETRTEM","TREATMENT EMERGENT FLAG","Y","DERIVED","CLINICAL STUDY SPONSOR"
"996","CDISCPILOT01","AE","01-716-1157","AESEQ","3","AETRTEM","TREATMENT EMERGENT FLAG","Y","DERIVED","CLINICAL STUDY SPONSOR"
"997","CDISCPILOT01","AE","01-716-1157","AESEQ","4","AETRTEM","TREATMENT EMERGENT FLAG","Y","DERIVED","CLINICAL STUDY SPONSOR"
"998","CDISCPILOT01","AE","01-716-1160","AESEQ","1","AETRTEM","TREATMENT EMERGENT FLAG","Y","DERIVED","CLINICAL STUDY SPONSOR"
"999","CDISCPILOT01","AE","01-716-1160","AESEQ","2","AETRTEM","TREATMENT EMERGENT FLAG","Y","DERIVED","CLINICAL STUDY SPONSOR"
"1000","CDISCPILOT01","AE","01-716-1167","AESEQ","1","AETRTEM","TREATMENT EMERGENT FLAG","Y","DERIVED","CLINICAL STUDY SPONSOR"
"1001","CDISCPILOT01","AE","01-716-1167","AESEQ","2","AETRTEM","TREATMENT EMERGENT FLAG","Y","DERIVED","CLINICAL STUDY SPONSOR"
"1002","CDISCPILOT01","AE","01-716-1167","AESEQ","3","AETRTEM","TREATMENT EMERGENT FLAG","Y","DERIVED","CLINICAL STUDY SPONSOR"
"1003","CDISCPILOT01","AE","01-716-1167","AESEQ","4","AETRTEM","TREATMENT EMERGENT FLAG","Y","DERIVED","CLINICAL STUDY SPONSOR"
"1004","CDISCPILOT01","AE","01-716-1167","AESEQ","5","AETRTEM","TREATMENT EMERGENT FLAG","Y","DERIVED","CLINICAL STUDY SPONSOR"
"1005","CDISCPILOT01","AE","01-716-1177","AESEQ","1","AETRTEM","TREATMENT EMERGENT FLAG","N","DERIVED","CLINICAL STUDY SPONSOR"
"1006","CDISCPILOT01","AE","01-716-1189","AESEQ","1","AETRTEM","TREATMENT EMERGENT FLAG","Y","DERIVED","CLINICAL STUDY SPONSOR"
"1007","CDISCPILOT01","AE","01-716-1189","AESEQ","2","AETRTEM","TREATMENT EMERGENT FLAG","Y","DERIVED","CLINICAL STUDY SPONSOR"
"1008","CDISCPILOT01","AE","01-716-1189","AESEQ","3","AETRTEM","TREATMENT EMERGENT FLAG","Y","DERIVED","CLINICAL STUDY SPONSOR"
"1009","CDISCPILOT01","AE","01-716-1189","AESEQ","4","AETRTEM","TREATMENT EMERGENT FLAG","Y","DERIVED","CLINICAL STUDY SPONSOR"
"1010","CDISCPILOT01","AE","01-716-1229","AESEQ","1","AETRTEM","TREATMENT EMERGENT FLAG","Y","DERIVED","CLINICAL STUDY SPONSOR"
"1011","CDISCPILOT01","AE","01-716-1229","AESEQ","2","AETRTEM","TREATMENT EMERGENT FLAG","Y","DERIVED","CLINICAL STUDY SPONSOR"
"1012","CDISCPILOT01","AE","01-716-1298","AESEQ","1","AETRTEM","TREATMENT EMERGENT FLAG","Y","DERIVED","CLINICAL STUDY SPONSOR"
"1013","CDISCPILOT01","AE","01-716-1298","AESEQ","2","AETRTEM","TREATMENT EMERGENT FLAG","Y","DERIVED","CLINICAL STUDY SPONSOR"
"1014","CDISCPILOT01","AE","01-716-1298","AESEQ","3","AETRTEM","TREATMENT EMERGENT FLAG","Y","DERIVED","CLINICAL STUDY SPONSOR"
"1015","CDISCPILOT01","AE","01-716-1298","AESEQ","4","AETRTEM","TREATMENT EMERGENT FLAG","Y","DERIVED","CLINICAL STUDY SPONSOR"
"1016","CDISCPILOT01","AE","01-716-1298","AESEQ","5","AETRTEM","TREATMENT EMERGENT FLAG","Y","DERIVED","CLINICAL STUDY SPONSOR"
"1017","CDISCPILOT01","AE","01-716-1298","AESEQ","6","AETRTEM","TREATMENT EMERGENT FLAG","Y","DERIVED","CLINICAL STUDY SPONSOR"
"1018","CDISCPILOT01","AE","01-716-1308","AESEQ","1","AETRTEM","TREATMENT EMERGENT FLAG","Y","DERIVED","CLINICAL STUDY SPONSOR"
"1019","CDISCPILOT01","AE","01-716-1311","AESEQ","1","AETRTEM","TREATMENT EMERGENT FLAG","Y","DERIVED","CLINICAL STUDY SPONSOR"
"1020","CDISCPILOT01","AE","01-716-1311","AESEQ","2","AETRTEM","TREATMENT EMERGENT FLAG","Y","DERIVED","CLINICAL STUDY SPONSOR"
"1021","CDISCPILOT01","AE","01-716-1311","AESEQ","3","AETRTEM","TREATMENT EMERGENT FLAG","Y","DERIVED","CLINICAL STUDY SPONSOR"
"1022","CDISCPILOT01","AE","01-716-1311","AESEQ","4","AETRTEM","TREATMENT EMERGENT FLAG","Y","DERIVED","CLINICAL STUDY SPONSOR"
"1023","CDISCPILOT01","AE","01-716-1364","AESEQ","1","AETRTEM","TREATMENT EMERGENT FLAG","Y","DERIVED","CLINICAL STUDY SPONSOR"
"1024","CDISCPILOT01","AE","01-716-1364","AESEQ","2","AETRTEM","TREATMENT EMERGENT FLAG","Y","DERIVED","CLINICAL STUDY SPONSOR"
"1025","CDISCPILOT01","AE","01-716-1373","AESEQ","1","AETRTEM","TREATMENT EMERGENT FLAG","Y","DERIVED","CLINICAL STUDY SPONSOR"
"1026","CDISCPILOT01","AE","01-716-1373","AESEQ","2","AETRTEM","TREATMENT EMERGENT FLAG","Y","DERIVED","CLINICAL STUDY SPONSOR"
"1027","CDISCPILOT01","AE","01-716-1418","AESEQ","1","AETRTEM","TREATMENT EMERGENT FLAG","Y","DERIVED","CLINICAL STUDY SPONSOR"
"1028","CDISCPILOT01","AE","01-716-1418","AESEQ","10","AETRTEM","TREATMENT EMERGENT FLAG","Y","DERIVED","CLINICAL STUDY SPONSOR"
"1029","CDISCPILOT01","AE","01-716-1418","AESEQ","2","AETRTEM","TREATMENT EMERGENT FLAG","Y","DERIVED","CLINICAL STUDY SPONSOR"
"1030","CDISCPILOT01","AE","01-716-1418","AESEQ","3","AETRTEM","TREATMENT EMERGENT FLAG","Y","DERIVED","CLINICAL STUDY SPONSOR"
"1031","CDISCPILOT01","AE","01-716-1418","AESEQ","4","AETRTEM","TREATMENT EMERGENT FLAG","Y","DERIVED","CLINICAL STUDY SPONSOR"
"1032","CDISCPILOT01","AE","01-716-1418","AESEQ","5","AETRTEM","TREATMENT EMERGENT FLAG","Y","DERIVED","CLINICAL STUDY SPONSOR"
"1033","CDISCPILOT01","AE","01-716-1418","AESEQ","6","AETRTEM","TREATMENT EMERGENT FLAG","Y","DERIVED","CLINICAL STUDY SPONSOR"
"1034","CDISCPILOT01","AE","01-716-1418","AESEQ","7","AETRTEM","TREATMENT EMERGENT FLAG","Y","DERIVED","CLINICAL STUDY SPONSOR"
"1035","CDISCPILOT01","AE","01-716-1418","AESEQ","8","AETRTEM","TREATMENT EMERGENT FLAG","Y","DERIVED","CLINICAL STUDY SPONSOR"
"1036","CDISCPILOT01","AE","01-716-1418","AESEQ","9","AETRTEM","TREATMENT EMERGENT FLAG","Y","DERIVED","CLINICAL STUDY SPONSOR"
"1037","CDISCPILOT01","AE","01-716-1441","AESEQ","1","AETRTEM","TREATMENT EMERGENT FLAG","Y","DERIVED","CLINICAL STUDY SPONSOR"
"1038","CDISCPILOT01","AE","01-716-1447","AESEQ","1","AETRTEM","TREATMENT EMERGENT FLAG","Y","DERIVED","CLINICAL STUDY SPONSOR"
"1039","CDISCPILOT01","AE","01-716-1447","AESEQ","2","AETRTEM","TREATMENT EMERGENT FLAG","Y","DERIVED","CLINICAL STUDY SPONSOR"
"1040","CDISCPILOT01","AE","01-716-1447","AESEQ","3","AETRTEM","TREATMENT EMERGENT FLAG","Y","DERIVED","CLINICAL STUDY SPONSOR"
"1041","CDISCPILOT01","AE","01-716-1447","AESEQ","4","AETRTEM","TREATMENT EMERGENT FLAG","Y","DERIVED","CLINICAL STUDY SPONSOR"
"1042","CDISCPILOT01","AE","01-716-1447","AESEQ","5","AETRTEM","TREATMENT EMERGENT FLAG","Y","DERIVED","CLINICAL STUDY SPONSOR"
"1043","CDISCPILOT01","AE","01-717-1004","AESEQ","1","AETRTEM","TREATMENT EMERGENT FLAG","N","DERIVED","CLINICAL STUDY SPONSOR"
"1044","CDISCPILOT01","AE","01-717-1004","AESEQ","10","AETRTEM","TREATMENT EMERGENT FLAG","N","DERIVED","CLINICAL STUDY SPONSOR"
"1045","CDISCPILOT01","AE","01-717-1004","AESEQ","11","AETRTEM","TREATMENT EMERGENT FLAG","Y","DERIVED","CLINICAL STUDY SPONSOR"
"1046","CDISCPILOT01","AE","01-717-1004","AESEQ","12","AETRTEM","TREATMENT EMERGENT FLAG","Y","DERIVED","CLINICAL STUDY SPONSOR"
"1047","CDISCPILOT01","AE","01-717-1004","AESEQ","13","AETRTEM","TREATMENT EMERGENT FLAG","Y","DERIVED","CLINICAL STUDY SPONSOR"
"1048","CDISCPILOT01","AE","01-717-1004","AESEQ","14","AETRTEM","TREATMENT EMERGENT FLAG","Y","DERIVED","CLINICAL STUDY SPONSOR"
"1049","CDISCPILOT01","AE","01-717-1004","AESEQ","15","AETRTEM","TREATMENT EMERGENT FLAG","Y","DERIVED","CLINICAL STUDY SPONSOR"
"1050","CDISCPILOT01","AE","01-717-1004","AESEQ","16","AETRTEM","TREATMENT EMERGENT FLAG","Y","DERIVED","CLINICAL STUDY SPONSOR"
"1051","CDISCPILOT01","AE","01-717-1004","AESEQ","17","AETRTEM","TREATMENT EMERGENT FLAG","Y","DERIVED","CLINICAL STUDY SPONSOR"
"1052","CDISCPILOT01","AE","01-717-1004","AESEQ","18","AETRTEM","TREATMENT EMERGENT FLAG","Y","DERIVED","CLINICAL STUDY SPONSOR"
"1053","CDISCPILOT01","AE","01-717-1004","AESEQ","19","AETRTEM","TREATMENT EMERGENT FLAG","Y","DERIVED","CLINICAL STUDY SPONSOR"
"1054","CDISCPILOT01","AE","01-717-1004","AESEQ","2","AETRTEM","TREATMENT EMERGENT FLAG","N","DERIVED","CLINICAL STUDY SPONSOR"
"1055","CDISCPILOT01","AE","01-717-1004","AESEQ","3","AETRTEM","TREATMENT EMERGENT FLAG","Y","DERIVED","CLINICAL STUDY SPONSOR"
"1056","CDISCPILOT01","AE","01-717-1004","AESEQ","4","AETRTEM","TREATMENT EMERGENT FLAG","Y","DERIVED","CLINICAL STUDY SPONSOR"
"1057","CDISCPILOT01","AE","01-717-1004","AESEQ","5","AETRTEM","TREATMENT EMERGENT FLAG","Y","DERIVED","CLINICAL STUDY SPONSOR"
"1058","CDISCPILOT01","AE","01-717-1004","AESEQ","6","AETRTEM","TREATMENT EMERGENT FLAG","Y","DERIVED","CLINICAL STUDY SPONSOR"
"1059","CDISCPILOT01","AE","01-717-1004","AESEQ","7","AETRTEM","TREATMENT EMERGENT FLAG","Y","DERIVED","CLINICAL STUDY SPONSOR"
"1060","CDISCPILOT01","AE","01-717-1004","AESEQ","8","AETRTEM","TREATMENT EMERGENT FLAG","Y","DERIVED","CLINICAL STUDY SPONSOR"
"1061","CDISCPILOT01","AE","01-717-1004","AESEQ","9","AETRTEM","TREATMENT EMERGENT FLAG","Y","DERIVED","CLINICAL STUDY SPONSOR"
"1062","CDISCPILOT01","AE","01-717-1109","AESEQ","1","AETRTEM","TREATMENT EMERGENT FLAG","Y","DERIVED","CLINICAL STUDY SPONSOR"
"1063","CDISCPILOT01","AE","01-717-1109","AESEQ","2","AETRTEM","TREATMENT EMERGENT FLAG","Y","DERIVED","CLINICAL STUDY SPONSOR"
"1064","CDISCPILOT01","AE","01-717-1109","AESEQ","3","AETRTEM","TREATMENT EMERGENT FLAG","Y","DERIVED","CLINICAL STUDY SPONSOR"
"1065","CDISCPILOT01","AE","01-717-1109","AESEQ","4","AETRTEM","TREATMENT EMERGENT FLAG","Y","DERIVED","CLINICAL STUDY SPONSOR"
"1066","CDISCPILOT01","AE","01-717-1109","AESEQ","5","AETRTEM","TREATMENT EMERGENT FLAG","Y","DERIVED","CLINICAL STUDY SPONSOR"
"1067","CDISCPILOT01","AE","01-717-1109","AESEQ","6","AETRTEM","TREATMENT EMERGENT FLAG","Y","DERIVED","CLINICAL STUDY SPONSOR"
"1068","CDISCPILOT01","AE","01-717-1109","AESEQ","7","AETRTEM","TREATMENT EMERGENT FLAG","Y","DERIVED","CLINICAL STUDY SPONSOR"
"1069","CDISCPILOT01","AE","01-717-1109","AESEQ","8","AETRTEM","TREATMENT EMERGENT FLAG","Y","DERIVED","CLINICAL STUDY SPONSOR"
"1070","CDISCPILOT01","AE","01-717-1174","AESEQ","1","AETRTEM","TREATMENT EMERGENT FLAG","Y","DERIVED","CLINICAL STUDY SPONSOR"
"1071","CDISCPILOT01","AE","01-717-1174","AESEQ","2","AETRTEM","TREATMENT EMERGENT FLAG","Y","DERIVED","CLINICAL STUDY SPONSOR"
"1072","CDISCPILOT01","AE","01-717-1174","AESEQ","3","AETRTEM","TREATMENT EMERGENT FLAG","Y","DERIVED","CLINICAL STUDY SPONSOR"
"1073","CDISCPILOT01","AE","01-717-1174","AESEQ","4","AETRTEM","TREATMENT EMERGENT FLAG","Y","DERIVED","CLINICAL STUDY SPONSOR"
"1074","CDISCPILOT01","AE","01-717-1174","AESEQ","5","AETRTEM","TREATMENT EMERGENT FLAG","Y","DERIVED","CLINICAL STUDY SPONSOR"
"1075","CDISCPILOT01","AE","01-717-1174","AESEQ","6","AETRTEM","TREATMENT EMERGENT FLAG","Y","DERIVED","CLINICAL STUDY SPONSOR"
"1076","CDISCPILOT01","AE","01-717-1201","AESEQ","1","AETRTEM","TREATMENT EMERGENT FLAG","Y","DERIVED","CLINICAL STUDY SPONSOR"
"1077","CDISCPILOT01","AE","01-717-1201","AESEQ","2","AETRTEM","TREATMENT EMERGENT FLAG","Y","DERIVED","CLINICAL STUDY SPONSOR"
"1078","CDISCPILOT01","AE","01-717-1344","AESEQ","1","AETRTEM","TREATMENT EMERGENT FLAG","Y","DERIVED","CLINICAL STUDY SPONSOR"
"1079","CDISCPILOT01","AE","01-717-1344","AESEQ","2","AETRTEM","TREATMENT EMERGENT FLAG","Y","DERIVED","CLINICAL STUDY SPONSOR"
"1080","CDISCPILOT01","AE","01-717-1344","AESEQ","3","AETRTEM","TREATMENT EMERGENT FLAG","Y","DERIVED","CLINICAL STUDY SPONSOR"
"1081","CDISCPILOT01","AE","01-717-1344","AESEQ","4","AETRTEM","TREATMENT EMERGENT FLAG","Y","DERIVED","CLINICAL STUDY SPONSOR"
"1082","CDISCPILOT01","AE","01-717-1344","AESEQ","5","AETRTEM","TREATMENT EMERGENT FLAG","Y","DERIVED","CLINICAL STUDY SPONSOR"
"1083","CDISCPILOT01","AE","01-717-1357","AESEQ","1","AETRTEM","TREATMENT EMERGENT FLAG","N","DERIVED","CLINICAL STUDY SPONSOR"
"1084","CDISCPILOT01","AE","01-717-1357","AESEQ","2","AETRTEM","TREATMENT EMERGENT FLAG","Y","DERIVED","CLINICAL STUDY SPONSOR"
"1085","CDISCPILOT01","AE","01-717-1357","AESEQ","3","AETRTEM","TREATMENT EMERGENT FLAG","Y","DERIVED","CLINICAL STUDY SPONSOR"
"1086","CDISCPILOT01","AE","01-717-1357","AESEQ","4","AETRTEM","TREATMENT EMERGENT FLAG","Y","DERIVED","CLINICAL STUDY SPONSOR"
"1087","CDISCPILOT01","AE","01-717-1357","AESEQ","5","AETRTEM","TREATMENT EMERGENT FLAG","Y","DERIVED","CLINICAL STUDY SPONSOR"
"1088","CDISCPILOT01","AE","01-717-1357","AESEQ","6","AETRTEM","TREATMENT EMERGENT FLAG","Y","DERIVED","CLINICAL STUDY SPONSOR"
"1089","CDISCPILOT01","AE","01-717-1357","AESEQ","7","AETRTEM","TREATMENT EMERGENT FLAG","Y","DERIVED","CLINICAL STUDY SPONSOR"
"1090","CDISCPILOT01","AE","01-717-1357","AESEQ","8","AETRTEM","TREATMENT EMERGENT FLAG","Y","DERIVED","CLINICAL STUDY SPONSOR"
"1091","CDISCPILOT01","AE","01-717-1357","AESEQ","9","AETRTEM","TREATMENT EMERGENT FLAG","Y","DERIVED","CLINICAL STUDY SPONSOR"
"1092","CDISCPILOT01","AE","01-717-1446","AESEQ","1","AETRTEM","TREATMENT EMERGENT FLAG","Y","DERIVED","CLINICAL STUDY SPONSOR"
"1093","CDISCPILOT01","AE","01-717-1446","AESEQ","2","AETRTEM","TREATMENT EMERGENT FLAG","Y","DERIVED","CLINICAL STUDY SPONSOR"
"1094","CDISCPILOT01","AE","01-717-1446","AESEQ","3","AETRTEM","TREATMENT EMERGENT FLAG","Y","DERIVED","CLINICAL STUDY SPONSOR"
"1095","CDISCPILOT01","AE","01-717-1446","AESEQ","4","AETRTEM","TREATMENT EMERGENT FLAG","Y","DERIVED","CLINICAL STUDY SPONSOR"
"1096","CDISCPILOT01","AE","01-717-1446","AESEQ","5","AETRTEM","TREATMENT EMERGENT FLAG","Y","DERIVED","CLINICAL STUDY SPONSOR"
"1097","CDISCPILOT01","AE","01-717-1446","AESEQ","6","AETRTEM","TREATMENT EMERGENT FLAG","Y","DERIVED","CLINICAL STUDY SPONSOR"
"1098","CDISCPILOT01","AE","01-717-1446","AESEQ","7","AETRTEM","TREATMENT EMERGENT FLAG","Y","DERIVED","CLINICAL STUDY SPONSOR"
"1099","CDISCPILOT01","AE","01-717-1446","AESEQ","8","AETRTEM","TREATMENT EMERGENT FLAG","Y","DERIVED","CLINICAL STUDY SPONSOR"
"1100","CDISCPILOT01","AE","01-717-1446","AESEQ","9","AETRTEM","TREATMENT EMERGENT FLAG","Y","DERIVED","CLINICAL STUDY SPONSOR"
"1101","CDISCPILOT01","AE","01-718-1066","AESEQ","1","AETRTEM","TREATMENT EMERGENT FLAG","Y","DERIVED","CLINICAL STUDY SPONSOR"
"1102","CDISCPILOT01","AE","01-718-1066","AESEQ","2","AETRTEM","TREATMENT EMERGENT FLAG","Y","DERIVED","CLINICAL STUDY SPONSOR"
"1103","CDISCPILOT01","AE","01-718-1066","AESEQ","3","AETRTEM","TREATMENT EMERGENT FLAG","Y","DERIVED","CLINICAL STUDY SPONSOR"
"1104","CDISCPILOT01","AE","01-718-1066","AESEQ","4","AETRTEM","TREATMENT EMERGENT FLAG","Y","DERIVED","CLINICAL STUDY SPONSOR"
"1105","CDISCPILOT01","AE","01-718-1079","AESEQ","1","AETRTEM","TREATMENT EMERGENT FLAG","Y","DERIVED","CLINICAL STUDY SPONSOR"
"1106","CDISCPILOT01","AE","01-718-1079","AESEQ","2","AETRTEM","TREATMENT EMERGENT FLAG","Y","DERIVED","CLINICAL STUDY SPONSOR"
"1107","CDISCPILOT01","AE","01-718-1079","AESEQ","3","AETRTEM","TREATMENT EMERGENT FLAG","Y","DERIVED","CLINICAL STUDY SPONSOR"
"1108","CDISCPILOT01","AE","01-718-1101","AESEQ","1","AETRTEM","TREATMENT EMERGENT FLAG","Y","DERIVED","CLINICAL STUDY SPONSOR"
"1109","CDISCPILOT01","AE","01-718-1101","AESEQ","2","AETRTEM","TREATMENT EMERGENT FLAG","Y","DERIVED","CLINICAL STUDY SPONSOR"
"1110","CDISCPILOT01","AE","01-718-1101","AESEQ","3","AETRTEM","TREATMENT EMERGENT FLAG","Y","DERIVED","CLINICAL STUDY SPONSOR"
"1111","CDISCPILOT01","AE","01-718-1101","AESEQ","4","AETRTEM","TREATMENT EMERGENT FLAG","Y","DERIVED","CLINICAL STUDY SPONSOR"
"1112","CDISCPILOT01","AE","01-718-1101","AESEQ","5","AETRTEM","TREATMENT EMERGENT FLAG","Y","DERIVED","CLINICAL STUDY SPONSOR"
"1113","CDISCPILOT01","AE","01-718-1101","AESEQ","6","AETRTEM","TREATMENT EMERGENT FLAG","Y","DERIVED","CLINICAL STUDY SPONSOR"
"1114","CDISCPILOT01","AE","01-718-1139","AESEQ","1","AETRTEM","TREATMENT EMERGENT FLAG","Y","DERIVED","CLINICAL STUDY SPONSOR"
"1115","CDISCPILOT01","AE","01-718-1139","AESEQ","2","AETRTEM","TREATMENT EMERGENT FLAG","Y","DERIVED","CLINICAL STUDY SPONSOR"
"1116","CDISCPILOT01","AE","01-718-1139","AESEQ","3","AETRTEM","TREATMENT EMERGENT FLAG","Y","DERIVED","CLINICAL STUDY SPONSOR"
"1117","CDISCPILOT01","AE","01-718-1150","AESEQ","1","AETRTEM","TREATMENT EMERGENT FLAG","Y","DERIVED","CLINICAL STUDY SPONSOR"
"1118","CDISCPILOT01","AE","01-718-1150","AESEQ","10","AETRTEM","TREATMENT EMERGENT FLAG","Y","DERIVED","CLINICAL STUDY SPONSOR"
"1119","CDISCPILOT01","AE","01-718-1150","AESEQ","2","AETRTEM","TREATMENT EMERGENT FLAG","Y","DERIVED","CLINICAL STUDY SPONSOR"
"1120","CDISCPILOT01","AE","01-718-1150","AESEQ","3","AETRTEM","TREATMENT EMERGENT FLAG","Y","DERIVED","CLINICAL STUDY SPONSOR"
"1121","CDISCPILOT01","AE","01-718-1150","AESEQ","4","AETRTEM","TREATMENT EMERGENT FLAG","Y","DERIVED","CLINICAL STUDY SPONSOR"
"1122","CDISCPILOT01","AE","01-718-1150","AESEQ","5","AETRTEM","TREATMENT EMERGENT FLAG","Y","DERIVED","CLINICAL STUDY SPONSOR"
"1123","CDISCPILOT01","AE","01-718-1150","AESEQ","6","AETRTEM","TREATMENT EMERGENT FLAG","Y","DERIVED","CLINICAL STUDY SPONSOR"
"1124","CDISCPILOT01","AE","01-718-1150","AESEQ","7","AETRTEM","TREATMENT EMERGENT FLAG","Y","DERIVED","CLINICAL STUDY SPONSOR"
"1125","CDISCPILOT01","AE","01-718-1150","AESEQ","8","AETRTEM","TREATMENT EMERGENT FLAG","Y","DERIVED","CLINICAL STUDY SPONSOR"
"1126","CDISCPILOT01","AE","01-718-1150","AESEQ","9","AETRTEM","TREATMENT EMERGENT FLAG","Y","DERIVED","CLINICAL STUDY SPONSOR"
"1127","CDISCPILOT01","AE","01-718-1170","AESEQ","1","AETRTEM","TREATMENT EMERGENT FLAG","Y","DERIVED","CLINICAL STUDY SPONSOR"
"1128","CDISCPILOT01","AE","01-718-1170","AESEQ","2","AETRTEM","TREATMENT EMERGENT FLAG","Y","DERIVED","CLINICAL STUDY SPONSOR"
"1129","CDISCPILOT01","AE","01-718-1170","AESEQ","3","AETRTEM","TREATMENT EMERGENT FLAG","Y","DERIVED","CLINICAL STUDY SPONSOR"
"1130","CDISCPILOT01","AE","01-718-1170","AESEQ","4","AETRTEM","TREATMENT EMERGENT FLAG","Y","DERIVED","CLINICAL STUDY SPONSOR"
"1131","CDISCPILOT01","AE","01-718-1170","AESEQ","5","AETRTEM","TREATMENT EMERGENT FLAG","Y","DERIVED","CLINICAL STUDY SPONSOR"
"1132","CDISCPILOT01","AE","01-718-1170","AESEQ","6","AETRTEM","TREATMENT EMERGENT FLAG","Y","DERIVED","CLINICAL STUDY SPONSOR"
"1133","CDISCPILOT01","AE","01-718-1250","AESEQ","1","AETRTEM","TREATMENT EMERGENT FLAG","Y","DERIVED","CLINICAL STUDY SPONSOR"
"1134","CDISCPILOT01","AE","01-718-1250","AESEQ","10","AETRTEM","TREATMENT EMERGENT FLAG","Y","DERIVED","CLINICAL STUDY SPONSOR"
"1135","CDISCPILOT01","AE","01-718-1250","AESEQ","11","AETRTEM","TREATMENT EMERGENT FLAG","Y","DERIVED","CLINICAL STUDY SPONSOR"
"1136","CDISCPILOT01","AE","01-718-1250","AESEQ","2","AETRTEM","TREATMENT EMERGENT FLAG","Y","DERIVED","CLINICAL STUDY SPONSOR"
"1137","CDISCPILOT01","AE","01-718-1250","AESEQ","3","AETRTEM","TREATMENT EMERGENT FLAG","Y","DERIVED","CLINICAL STUDY SPONSOR"
"1138","CDISCPILOT01","AE","01-718-1250","AESEQ","4","AETRTEM","TREATMENT EMERGENT FLAG","Y","DERIVED","CLINICAL STUDY SPONSOR"
"1139","CDISCPILOT01","AE","01-718-1250","AESEQ","5","AETRTEM","TREATMENT EMERGENT FLAG","Y","DERIVED","CLINICAL STUDY SPONSOR"
"1140","CDISCPILOT01","AE","01-718-1250","AESEQ","6","AETRTEM","TREATMENT EMERGENT FLAG","Y","DERIVED","CLINICAL STUDY SPONSOR"
"1141","CDISCPILOT01","AE","01-718-1250","AESEQ","7","AETRTEM","TREATMENT EMERGENT FLAG","Y","DERIVED","CLINICAL STUDY SPONSOR"
"1142","CDISCPILOT01","AE","01-718-1250","AESEQ","8","AETRTEM","TREATMENT EMERGENT FLAG","Y","DERIVED","CLINICAL STUDY SPONSOR"
"1143","CDISCPILOT01","AE","01-718-1250","AESEQ","9","AETRTEM","TREATMENT EMERGENT FLAG","Y","DERIVED","CLINICAL STUDY SPONSOR"
"1144","CDISCPILOT01","AE","01-718-1254","AESEQ","1","AETRTEM","TREATMENT EMERGENT FLAG","Y","DERIVED","CLINICAL STUDY SPONSOR"
"1145","CDISCPILOT01","AE","01-718-1254","AESEQ","2","AETRTEM","TREATMENT EMERGENT FLAG","Y","DERIVED","CLINICAL STUDY SPONSOR"
"1146","CDISCPILOT01","AE","01-718-1254","AESEQ","3","AETRTEM","TREATMENT EMERGENT FLAG","Y","DERIVED","CLINICAL STUDY SPONSOR"
"1147","CDISCPILOT01","AE","01-718-1254","AESEQ","4","AETRTEM","TREATMENT EMERGENT FLAG","Y","DERIVED","CLINICAL STUDY SPONSOR"
"1148","CDISCPILOT01","AE","01-718-1254","AESEQ","5","AETRTEM","TREATMENT EMERGENT FLAG","Y","DERIVED","CLINICAL STUDY SPONSOR"
"1149","CDISCPILOT01","AE","01-718-1254","AESEQ","6","AETRTEM","TREATMENT EMERGENT FLAG","Y","DERIVED","CLINICAL STUDY SPONSOR"
"1150","CDISCPILOT01","AE","01-718-1254","AESEQ","7","AETRTEM","TREATMENT EMERGENT FLAG","Y","DERIVED","CLINICAL STUDY SPONSOR"
"1151","CDISCPILOT01","AE","01-718-1254","AESEQ","8","AETRTEM","TREATMENT EMERGENT FLAG","Y","DERIVED","CLINICAL STUDY SPONSOR"
"1152","CDISCPILOT01","AE","01-718-1254","AESEQ","9","AETRTEM","TREATMENT EMERGENT FLAG","Y","DERIVED","CLINICAL STUDY SPONSOR"
"1153","CDISCPILOT01","AE","01-718-1328","AESEQ","1","AETRTEM","TREATMENT EMERGENT FLAG","Y","DERIVED","CLINICAL STUDY SPONSOR"
"1154","CDISCPILOT01","AE","01-718-1328","AESEQ","2","AETRTEM","TREATMENT EMERGENT FLAG","Y","DERIVED","CLINICAL STUDY SPONSOR"
"1155","CDISCPILOT01","AE","01-718-1328","AESEQ","3","AETRTEM","TREATMENT EMERGENT FLAG","Y","DERIVED","CLINICAL STUDY SPONSOR"
"1156","CDISCPILOT01","AE","01-718-1328","AESEQ","4","AETRTEM","TREATMENT EMERGENT FLAG","Y","DERIVED","CLINICAL STUDY SPONSOR"
"1157","CDISCPILOT01","AE","01-718-1355","AESEQ","1","AETRTEM","TREATMENT EMERGENT FLAG","Y","DERIVED","CLINICAL STUDY SPONSOR"
"1158","CDISCPILOT01","AE","01-718-1355","AESEQ","10","AETRTEM","TREATMENT EMERGENT FLAG","Y","DERIVED","CLINICAL STUDY SPONSOR"
"1159","CDISCPILOT01","AE","01-718-1355","AESEQ","11","AETRTEM","TREATMENT EMERGENT FLAG","Y","DERIVED","CLINICAL STUDY SPONSOR"
"1160","CDISCPILOT01","AE","01-718-1355","AESEQ","12","AETRTEM","TREATMENT EMERGENT FLAG","Y","DERIVED","CLINICAL STUDY SPONSOR"
"1161","CDISCPILOT01","AE","01-718-1355","AESEQ","13","AETRTEM","TREATMENT EMERGENT FLAG","Y","DERIVED","CLINICAL STUDY SPONSOR"
"1162","CDISCPILOT01","AE","01-718-1355","AESEQ","2","AETRTEM","TREATMENT EMERGENT FLAG","Y","DERIVED","CLINICAL STUDY SPONSOR"
"1163","CDISCPILOT01","AE","01-718-1355","AESEQ","3","AETRTEM","TREATMENT EMERGENT FLAG","N","DERIVED","CLINICAL STUDY SPONSOR"
"1164","CDISCPILOT01","AE","01-718-1355","AESEQ","4","AETRTEM","TREATMENT EMERGENT FLAG","Y","DERIVED","CLINICAL STUDY SPONSOR"
"1165","CDISCPILOT01","AE","01-718-1355","AESEQ","5","AETRTEM","TREATMENT EMERGENT FLAG","Y","DERIVED","CLINICAL STUDY SPONSOR"
"1166","CDISCPILOT01","AE","01-718-1355","AESEQ","6","AETRTEM","TREATMENT EMERGENT FLAG","Y","DERIVED","CLINICAL STUDY SPONSOR"
"1167","CDISCPILOT01","AE","01-718-1355","AESEQ","7","AETRTEM","TREATMENT EMERGENT FLAG","Y","DERIVED","CLINICAL STUDY SPONSOR"
"1168","CDISCPILOT01","AE","01-718-1355","AESEQ","8","AETRTEM","TREATMENT EMERGENT FLAG","Y","DERIVED","CLINICAL STUDY SPONSOR"
"1169","CDISCPILOT01","AE","01-718-1355","AESEQ","9","AETRTEM","TREATMENT EMERGENT FLAG","Y","DERIVED","CLINICAL STUDY SPONSOR"
"1170","CDISCPILOT01","AE","01-718-1371","AESEQ","1","AETRTEM","TREATMENT EMERGENT FLAG","Y","DERIVED","CLINICAL STUDY SPONSOR"
"1171","CDISCPILOT01","AE","01-718-1371","AESEQ","2","AETRTEM","TREATMENT EMERGENT FLAG","Y","DERIVED","CLINICAL STUDY SPONSOR"
"1172","CDISCPILOT01","AE","01-718-1371","AESEQ","3","AETRTEM","TREATMENT EMERGENT FLAG","Y","DERIVED","CLINICAL STUDY SPONSOR"
"1173","CDISCPILOT01","AE","01-718-1371","AESEQ","4","AETRTEM","TREATMENT EMERGENT FLAG","Y","DERIVED","CLINICAL STUDY SPONSOR"
"1174","CDISCPILOT01","AE","01-718-1371","AESEQ","5","AETRTEM","TREATMENT EMERGENT FLAG","Y","DERIVED","CLINICAL STUDY SPONSOR"
"1175","CDISCPILOT01","AE","01-718-1371","AESEQ","6","AETRTEM","TREATMENT EMERGENT FLAG","Y","DERIVED","CLINICAL STUDY SPONSOR"
"1176","CDISCPILOT01","AE","01-718-1427","AESEQ","1","AETRTEM","TREATMENT EMERGENT FLAG","Y","DERIVED","CLINICAL STUDY SPONSOR"
"1177","CDISCPILOT01","AE","01-718-1427","AESEQ","10","AETRTEM","TREATMENT EMERGENT FLAG","Y","DERIVED","CLINICAL STUDY SPONSOR"
"1178","CDISCPILOT01","AE","01-718-1427","AESEQ","11","AETRTEM","TREATMENT EMERGENT FLAG","Y","DERIVED","CLINICAL STUDY SPONSOR"
"1179","CDISCPILOT01","AE","01-718-1427","AESEQ","12","AETRTEM","TREATMENT EMERGENT FLAG","Y","DERIVED","CLINICAL STUDY SPONSOR"
"1180","CDISCPILOT01","AE","01-718-1427","AESEQ","13","AETRTEM","TREATMENT EMERGENT FLAG","Y","DERIVED","CLINICAL STUDY SPONSOR"
"1181","CDISCPILOT01","AE","01-718-1427","AESEQ","14","AETRTEM","TREATMENT EMERGENT FLAG","Y","DERIVED","CLINICAL STUDY SPONSOR"
"1182","CDISCPILOT01","AE","01-718-1427","AESEQ","15","AETRTEM","TREATMENT EMERGENT FLAG","Y","DERIVED","CLINICAL STUDY SPONSOR"
"1183","CDISCPILOT01","AE","01-718-1427","AESEQ","16","AETRTEM","TREATMENT EMERGENT FLAG","Y","DERIVED","CLINICAL STUDY SPONSOR"
"1184","CDISCPILOT01","AE","01-718-1427","AESEQ","2","AETRTEM","TREATMENT EMERGENT FLAG","Y","DERIVED","CLINICAL STUDY SPONSOR"
"1185","CDISCPILOT01","AE","01-718-1427","AESEQ","3","AETRTEM","TREATMENT EMERGENT FLAG","Y","DERIVED","CLINICAL STUDY SPONSOR"
"1186","CDISCPILOT01","AE","01-718-1427","AESEQ","4","AETRTEM","TREATMENT EMERGENT FLAG","Y","DERIVED","CLINICAL STUDY SPONSOR"
"1187","CDISCPILOT01","AE","01-718-1427","AESEQ","5","AETRTEM","TREATMENT EMERGENT FLAG","Y","DERIVED","CLINICAL STUDY SPONSOR"
"1188","CDISCPILOT01","AE","01-718-1427","AESEQ","6","AETRTEM","TREATMENT EMERGENT FLAG","Y","DERIVED","CLINICAL STUDY SPONSOR"
"1189","CDISCPILOT01","AE","01-718-1427","AESEQ","7","AETRTEM","TREATMENT EMERGENT FLAG","Y","DERIVED","CLINICAL STUDY SPONSOR"
"1190","CDISCPILOT01","AE","01-718-1427","AESEQ","8","AETRTEM","TREATMENT EMERGENT FLAG","Y","DERIVED","CLINICAL STUDY SPONSOR"
"1191","CDISCPILOT01","AE","01-718-1427","AESEQ","9","AETRTEM","TREATMENT EMERGENT FLAG","Y","DERIVED","CLINICAL STUDY SPONSOR"
